"Time (s)","Acceleration x (m/s^2)","Acceleration y (m/s^2)","Acceleration z (m/s^2)"
1.638762100E-2,9.768698692E0,3.930211067E-1,-5.509474277E-1
3.584939200E-2,9.885947227E0,3.505485058E-1,-5.521438122E-1
5.531126700E-2,9.781260490E0,4.821537733E-1,-4.235295951E-1
7.477314200E-2,9.495318413E0,6.221339107E-1,-3.236292601E-1
9.423501700E-2,9.192625999E0,6.813562512E-1,-3.768695593E-1
1.136967880E-1,9.227920532E0,8.315058947E-1,-2.715853751E-1
1.331586630E-1,9.962516785E0,7.411768436E-1,-1.405783296E-1
1.526205380E-1,1.077428246E1,5.593222976E-1,-2.973082066E-1
1.720824130E-1,1.079103184E1,6.269195080E-1,-5.341976285E-1
1.915441840E-1,1.007557774E1,7.842476368E-1,-5.880361795E-1
2.110060590E-1,9.339186668E0,8.344969153E-1,-6.167500615E-1
2.304679340E-1,8.995218277E0,9.014959335E-1,-7.381857634E-1
2.499297040E-1,9.157930374E0,8.985049129E-1,-7.525427341E-1
2.693915790E-1,9.744172096E0,6.747759581E-1,-7.579265833E-1
2.888534540E-1,1.014915752E1,4.277170599E-1,-8.817551732E-1
3.083153290E-1,1.010668468E1,3.744767308E-1,-8.751748800E-1
3.277771000E-1,9.769894600E0,4.444667995E-1,-7.603194118E-1
3.472389750E-1,9.434301376E0,4.624129832E-1,-7.310073376E-1
3.667008500E-1,9.336195946E0,4.971089065E-1,-7.316055298E-1
3.861627250E-1,9.524032593E0,4.815555513E-1,-7.740781307E-1
4.056244960E-1,9.769296646E0,3.870390654E-1,-9.433703423E-1
4.250863710E-1,9.994221687E0,3.397808075E-1,-1.192223907E0
4.445482460E-1,1.001934624E1,2.733799815E-1,-1.301097274E0
4.640101210E-1,9.842875481E0,1.722832322E-1,-1.298704505E0
4.834718920E-1,9.516854286E0,-5.503492057E-2,-1.275972724E0
5.029337670E-1,9.282955170E0,-2.967100143E-1,-1.274776220E0
5.223956420E-1,9.212367058E0,-5.300102234E-1,-1.266401410E0
5.418574130E-1,9.317052841E0,-6.197410822E-1,-1.287936807E0
5.613192880E-1,9.580862045E0,-5.521438122E-1,-1.292124271E0
5.807811630E-1,9.954740524E0,-4.468596280E-1,-1.235892892E0
6.002430380E-1,1.024247742E1,-4.857429862E-1,-1.305882931E0
6.197048090E-1,1.035314560E1,-6.406782866E-1,-1.471585870E0
6.391666840E-1,1.021376324E1,-8.033902049E-1,-1.554736495E0
6.586285590E-1,9.997811317E0,-7.591229677E-1,-1.476969719E0
6.780904340E-1,9.784850121E0,-6.592226624E-1,-1.360917926E0
6.975522040E-1,9.705288887E0,-6.687939167E-1,-1.350150228E0
7.170140790E-1,9.793823242E0,-7.166503668E-1,-1.468594909E0
7.364759540E-1,9.933204651E0,-7.447660565E-1,-1.634896040E0
7.559378290E-1,1.015633583E1,-6.699903607E-1,-1.822134495E0
7.753996000E-1,1.031725311E1,-4.342973232E-1,-1.922034740E0
7.948614750E-1,1.012044334E1,-2.769692242E-1,-1.664208174E0
8.143233500E-1,9.698708534E0,-4.319044948E-1,-1.380658627E0
8.337851210E-1,9.542576790E0,-7.232306600E-1,-1.237089276E0
8.532469960E-1,9.601799011E0,-1.009172916E0,-1.164706469E0
8.727088710E-1,9.774082184E0,-1.252642632E0,-1.262812138E0
8.921707460E-1,9.967302322E0,-1.517647743E0,-1.456032634E0
9.116325170E-1,1.003489971E1,-1.761715651E0,-1.631905079E0
9.310943920E-1,9.967901230E0,-1.838884234E0,-1.724626899E0
9.505562670E-1,9.825528145E0,-1.709671736E0,-1.733001828E0
9.700181420E-1,9.635896683E0,-1.515254974E0,-1.759322882E0
9.894799130E-1,9.581459999E0,-1.401595831E0,-1.825125456E0
1.008941788E0,9.574879646E0,-1.396211982E0,-1.856232166E0
1.028403663E0,9.542576790E0,-1.460219979E0,-1.904088616E0
1.047865538E0,9.453444481E0,-1.517647743E0,-1.891526341E0
1.067327309E0,9.370293617E0,-1.415952802E0,-1.852044702E0
1.086789184E0,9.278169632E0,-1.147956610E0,-1.795215130E0
1.106251059E0,9.156734467E0,-9.427721500E-1,-1.776670814E0
1.125712829E0,9.156734467E0,-9.403793216E-1,-1.858026743E0
1.145174704E0,9.232706070E0,-1.025324464E0,-1.995614052E0
1.164636579E0,9.366106033E0,-1.125823021E0,-2.157727718E0
1.184098454E0,9.557532310E0,-1.176670551E0,-2.353341103E0
1.203560225E0,9.732208252E0,-8.985049129E-1,-2.385046005E0
1.223022100E0,9.830911636E0,-4.241278172E-1,-2.312663078E0
1.242483975E0,1.007797050E1,9.750752151E-2,-2.365903378E0
1.261945850E0,1.016052341E1,7.178468108E-1,-2.227119684E0
1.281407621E0,1.008814049E1,1.206580877E0,-1.881356835E0
1.300869496E0,1.001456070E1,1.383051515E0,-1.495514154E0
1.320331371E0,9.838688850E0,1.247856975E0,-9.272187948E-1
1.339793142E0,9.603593826E0,7.878368497E-1,-3.583251834E-1
1.359255017E0,9.757930756E0,4.007977992E-2,1.429711580E-1
1.378716892E0,9.970891953E0,-2.249253243E-1,4.001995921E-1
1.398178767E0,1.028195858E1,8.973085135E-2,2.805584669E-1
1.417640538E0,1.058106136E1,7.962117195E-1,-1.220339537E-1
1.437102413E0,1.064267731E1,1.522433400E0,-5.676971674E-1
1.456564288E0,1.050748253E1,2.024926186E0,-9.152546525E-1
1.476026059E0,1.013121128E1,2.191825628E0,-9.930213690E-1
1.495487934E0,9.638887405E0,2.018944025E0,-7.854440212E-1
1.514949809E0,9.388837814E0,1.638485312E0,-5.180460811E-1
1.534411684E0,9.425926208E0,1.310070395E0,-4.193421602E-1
1.553873454E0,9.499505997E0,1.274178028E0,-4.366901219E-1
1.573335329E0,9.701699257E0,1.537986755E0,-6.394818425E-1
1.592797204E0,9.885348320E0,2.054836512E0,-9.595218897E-1
1.612258975E0,9.888339996E0,2.503490686E0,-1.112064362E0
1.631720850E0,9.673583984E0,2.565105915E0,-9.661021233E-1
1.651182725E0,9.253045082E0,2.183450699E0,-8.608179688E-1
1.670644600E0,8.753543854E0,1.774278045E0,-4.875376225E-1
1.690106371E0,8.438288689E0,1.344168067E0,-3.451646566E-1
1.709568246E0,8.414958954E0,9.655039310E-1,-4.342973232E-1
1.729030121E0,8.822337151E0,6.843472719E-1,-8.165507317E-1
1.748491892E0,9.268000603E0,3.553341627E-1,-1.218544960E0
1.767953767E0,9.846465111E0,4.115654826E-1,-1.784447432E0
1.787415642E0,1.075753212E1,-1.023529887E0,-7.393822074E-1
1.806877517E0,1.135095215E1,-1.831705689E0,-1.091725349E0
1.826339288E0,9.783055305E0,-3.062812984E-1,-1.289731383E0
1.845801163E0,1.000319481E1,2.045863390E0,-7.082754970E-1
1.865263038E0,1.115174961E1,2.749951363E0,2.219343036E-1
1.884724913E0,1.068395329E1,1.887937069E0,-3.122633696E-1
1.904186684E0,1.024786091E1,5.563312769E-1,-6.334998012E-1
1.923648559E0,9.989436150E0,-1.980060786E-1,-2.057827413E-1
1.943110434E0,9.491130829E0,-3.828516230E-2,3.050848842E-2
1.962572204E0,9.150752068E0,8.171489239E-1,-3.798605800E-1
1.982034079E0,9.175278664E0,1.660020709E0,-9.224331379E-1
2.001495954E0,9.314660072E0,1.980060697E0,-1.228116274E0
2.020957725E0,9.541379929E0,1.931606054E0,-1.363310695E0
2.040419600E0,9.637093544E0,1.777867198E0,-1.411167145E0
2.059881475E0,9.644271851E0,1.949552298E0,-1.364507079E0
2.079343350E0,9.625727654E0,2.385046005E0,-1.241874933E0
2.098805121E0,9.677771568E0,2.656033039E0,-1.310070395E0
2.118266996E0,9.656833649E0,2.489133835E0,-1.454237938E0
2.137728871E0,9.655637741E0,1.945963025E0,-1.391426325E0
2.157190642E0,9.595816612E0,1.317847013E0,-1.159920812E0
2.176652517E0,9.364909172E0,8.219345808E-1,-1.027717352E0
2.196114392E0,9.171689034E0,6.873382926E-1,-1.170090318E0
2.215576163E0,9.279366493E0,9.260223508E-1,-1.318445325E0
2.235038038E0,9.541978836E0,1.317847013E0,-1.374676585E0
2.254499913E0,9.711270332E0,1.686341763E0,-1.518844128E0
2.273961788E0,9.744172096E0,1.749751568E0,-1.511067510E0
2.293423559E0,9.645467758E0,1.566700578E0,-1.297508121E0
2.312885434E0,9.490532875E0,1.208973646E0,-9.750752449E-1
2.332347309E0,9.403194427E0,7.369893789E-1,-7.124629617E-1
2.351809079E0,9.746564865E0,4.265206456E-1,-9.780662656E-1
2.371270954E0,1.080838013E1,5.018945336E-1,-1.691127419E0
2.390732829E0,1.111406326E1,9.918249846E-1,-2.391027927E0
2.410194600E0,1.013121128E1,1.396810174E0,-2.267199516E0
2.429656475E0,9.276973724E0,1.400399446E0,-1.449452281E0
2.449118350E0,8.836693764E0,8.829515576E-1,-5.581258535E-1
2.468580225E0,8.868997574E0,9.690931439E-2,-2.554338276E-1
2.488041996E0,9.192028046E0,-2.793620527E-1,-6.921239495E-1
2.507503871E0,9.527023315E0,-3.158525825E-1,-1.521835208E0
2.526965746E0,9.774680138E0,-2.470589429E-1,-2.045863390E0
2.546427517E0,9.739386559E0,-3.140579760E-1,-2.064407825E0
2.565889392E0,9.464810371E0,-5.024927258E-1,-1.829312921E0
2.585351267E0,9.197412491E0,-5.904290080E-1,-1.518245935E0
2.604813038E0,9.231510162E0,-4.504488707E-1,-1.296909928E0
2.624274913E0,9.410373688E0,-1.339980662E-1,-1.399203062E0
2.643736788E0,9.605388641E0,1.722832322E-1,-1.555334687E0
2.663198559E0,9.822537422E0,3.176472187E-1,-1.521237016E0
2.682660434E0,9.988838196E0,1.064806059E-1,-1.405185103E0
2.702122309E0,1.026879883E1,-2.823530734E-1,-1.424327731E0
2.721584079E0,1.057268715E1,-5.407779217E-1,-1.561915040E0
2.741045954E0,1.055294609E1,-7.471588850E-1,-1.571486235E0
2.760507829E0,1.036331463E1,-9.451649189E-1,-1.426122308E0
2.779969600E0,1.019282627E1,-1.009172916E0,-1.214955688E0
2.799431475E0,1.007198906E1,-7.824530005E-1,-1.191625714E0
2.818893350E0,9.942776680E0,-5.150550604E-1,-1.372882009E0
2.838355121E0,9.731609344E0,-5.192425251E-1,-1.534995675E0
2.857816996E0,9.662816048E0,-6.167500615E-1,-1.723430514E0
2.877278871E0,9.559326172E0,-5.952146053E-1,-1.813759565E0
2.896740746E0,9.493523598E0,-5.210371017E-1,-1.769492388E0
2.916202517E0,9.565308571E0,-5.443671346E-1,-1.823929071E0
2.935664392E0,9.628718376E0,-6.921239495E-1,-1.835893154E0
2.955126267E0,9.708279610E0,-8.961120844E-1,-1.688136339E0
2.974588038E0,9.883553505E0,-1.074377418E0,-1.567897081E0
2.994049913E0,9.985847473E0,-1.057627559E0,-1.567897081E0
3.013511788E0,9.880562782E0,-8.614161611E-1,-1.671984792E0
3.032973559E0,9.723235130E0,-6.071787477E-1,-1.733001828E0
3.052435434E0,9.521040916E0,-5.144568682E-1,-1.704886079E0
3.071897309E0,9.404391289E0,-6.646065116E-1,-1.654038668E0
3.091359079E0,9.452247620E0,-9.008977413E-1,-1.712064624E0
3.110820954E0,9.462417603E0,-1.010369420E0,-1.743171334E0
3.130282829E0,9.429515839E0,-9.355936646E-1,-1.866999865E0
3.149744600E0,9.521040916E0,-7.435696125E-1,-2.136192322E0
3.169206475E0,9.788438797E0,-5.192425251E-1,-2.356930256E0
3.188668350E0,9.976874352E0,-3.296113312E-1,-2.523231506E0
3.208130121E0,9.970293999E0,-3.014956415E-1,-2.547757864E0
3.227591996E0,9.888937950E0,-3.511467278E-1,-2.353939295E0
3.247053871E0,9.982257843E0,-3.206382394E-1,-2.184048891E0
3.266515642E0,9.882955551E0,-2.757728100E-1,-2.136192322E0
3.285977517E0,9.659825325E0,-4.181457460E-1,-2.120639086E0
3.305439392E0,9.448657990E0,-7.477570772E-1,-2.106282234E0
3.324901163E0,9.383454323E0,-8.757730722E-1,-1.928615093E0
3.344363038E0,9.588638306E0,-4.887340367E-1,-1.750947952E0
3.363824913E0,9.872786522E0,2.644068897E-1,-1.793420553E0
3.383286684E0,1.002114105E1,7.686942816E-1,-2.011167526E0
3.402748559E0,9.990633011E0,9.714859724E-1,-2.310270309E0
3.422210434E0,9.878767967E0,7.292127013E-1,-2.350350142E0
3.441672204E0,9.825528145E0,5.850451589E-1,-2.272583246E0
3.461134079E0,9.739386559E0,6.047859192E-1,-2.394019127E0
3.480595954E0,9.473783493E0,9.224331379E-1,-2.721237659E0
3.500057725E0,9.095118523E0,1.322034478E0,-3.095116138E0
3.519519600E0,8.975478172E0,1.410568953E0,-3.282354355E0
3.538981475E0,9.100502968E0,1.430309772E0,-2.863012314E0
3.558443246E0,9.086744308E0,1.532004714E0,-1.870589137E0
3.577905121E0,9.410373688E0,1.366301775E0,-1.156929731E0
3.597366996E0,9.863214493E0,9.750752449E-1,-1.198804140E0
3.616828767E0,1.028255749E1,7.100701332E-1,-1.501496196E0
3.636290642E0,1.028674412E1,7.441678643E-1,-1.729412556E0
3.655752517E0,9.598808289E0,8.799605370E-1,-1.552941918E0
3.675214288E0,8.881559372E0,1.104287624E0,-1.089332461E0
3.694676163E0,8.651848793E0,1.371685624E0,-8.811569214E-1
3.714138038E0,8.821739197E0,1.852642894E0,-1.036092162E0
3.733599809E0,9.132805824E0,2.365903378E0,-1.374078393E0
3.753061684E0,9.468997002E0,2.609971285E0,-1.643869162E0
3.772523559E0,9.689735413E0,2.501097918E0,-1.706082582E0
3.791985329E0,9.888937950E0,2.070987940E0,-1.593021631E0
3.811447204E0,9.966106415E0,1.586441398E0,-1.387238979E0
3.830908975E0,9.815957069E0,1.383051515E0,-1.173081279E0
3.850370850E0,9.597611427E0,1.503889084E0,-1.091127157E0
3.869832725E0,9.317651749E0,1.907677889E0,-1.086341500E0
3.889294496E0,9.141778946E0,2.210968018E0,-1.131206870E0
3.908756371E0,9.210572243E0,2.010569334E0,-1.156929731E0
3.928218246E0,9.678369522E0,1.646261930E0,-1.308275819E0
3.947680017E0,1.019162941E1,1.674975872E0,-1.700698733E0
3.967141892E0,1.019880867E1,1.834098577E0,-1.888535261E0
3.986603767E0,1.001216793E1,1.862812400E0,-1.884945989E0
4.006065538E0,9.951150894E0,1.572682738E0,-1.738983870E0
4.025527413E0,9.897313118E0,1.054636598E0,-1.604985833E0
4.044989288E0,9.729815483E0,5.730810165E-1,-1.460818172E0
4.064451059E0,9.531808853E0,1.992024779E-1,-1.332802176E0
4.083912934E0,9.416355133E0,2.871387079E-2,-1.375274777E0
4.103374704E0,9.270991325E0,-6.161518395E-2,-1.506880045E0
4.122836579E0,9.227920532E0,-1.381855011E-1,-1.730608940E0
4.142298454E0,9.413364410E0,-1.668993831E-1,-1.975275040E0
4.161760225E0,9.845269203E0,-1.333998591E-1,-2.160718918E0
4.181222100E0,1.012881851E1,2.153540403E-2,-2.255833626E0
4.200683975E0,1.012642574E1,9.272187948E-2,-2.070987940E0
4.220145746E0,9.906884193E0,-1.172483116E-1,-1.798206210E0
4.239607621E0,9.613164902E0,-4.851447940E-1,-1.557129383E0
4.259069496E0,9.402596474E0,-7.752745152E-1,-1.351944804E0
4.278531267E0,9.609575272E0,-8.883354068E-1,-1.323230863E0
4.297993142E0,1.003549862E1,-9.326026440E-1,-1.536192179E0
4.317455017E0,1.033519936E1,-8.177471161E-1,-1.757528186E0
4.336916788E0,1.020120144E1,-7.214360237E-1,-1.870589137E0
4.356378663E0,9.900303841E0,-7.680960894E-1,-1.811964989E0
4.375840434E0,9.722038269E0,-9.714859724E-1,-1.613958836E0
4.395302309E0,9.656235695E0,-9.972088337E-1,-1.374676585E0
4.414764184E0,9.537791252E0,-7.950153351E-1,-1.259821177E0
4.434225954E0,9.480362892E0,-6.221339107E-1,-1.293320656E0
4.453687829E0,9.549157143E0,-5.862415433E-1,-1.344168067E0
4.473149704E0,9.650852203E0,-6.394818425E-1,-1.375274777E0
4.492611475E0,9.743574142E0,-6.987041831E-1,-1.406381488E0
4.512073350E0,9.799206734E0,-6.873382926E-1,-1.536790371E0
4.531535225E0,9.826126099E0,-6.382854581E-1,-1.658824325E0
4.550996996E0,9.853643417E0,-4.486542344E-1,-1.646860242E0
4.570458871E0,9.933204651E0,-3.188436031E-1,-1.543370605E0
4.589920642E0,9.991828918E0,-3.212364316E-1,-1.450648785E0
4.609382517E0,9.938589096E0,-4.217349887E-1,-1.222732425E0
4.628844392E0,9.920642853E0,-5.407779217E-1,-1.045065284E0
4.648306163E0,9.841081619E0,-6.197410822E-1,-8.757730722E-1
4.667768038E0,9.748359680E0,-5.485545993E-1,-7.603194118E-1
4.687229913E0,9.878767967E0,-5.144568682E-1,-7.944171429E-1
4.706691684E0,1.013898754E1,-4.648058116E-1,-9.296116233E-1
4.726153559E0,1.027956581E1,-2.231307179E-1,-1.066600680E0
4.745615434E0,1.012104130E1,1.734796353E-2,-1.180858016E0
4.765077204E0,9.802198410E0,1.477568001E-1,-1.256231904E0
4.784539079E0,9.460023880E0,3.218346536E-1,-1.143171072E0
4.804000850E0,9.205786705E0,4.325026870E-1,-9.708877802E-1
4.823462725E0,9.218947411E0,5.090730190E-1,-9.385846853E-1
4.842924600E0,9.482157707E0,5.916253924E-1,-9.900303483E-1
4.862386371E0,9.708279610E0,6.263213158E-1,-1.071386337E0
4.881848246E0,9.776474953E0,5.096712112E-1,-1.109073281E0
4.901310121E0,9.692128181E0,4.259224236E-1,-9.918249846E-1
4.920771892E0,9.650253296E0,3.643072546E-1,-7.938188910E-1
4.940233767E0,9.693324089E0,3.104687333E-1,-6.233302951E-1
4.959695538E0,9.725028992E0,2.344966233E-1,-5.557330847E-1
4.979157413E0,9.782457352E0,2.303091735E-1,-5.593222976E-1
4.998619288E0,9.860223770E0,3.373879790E-1,-6.065805554E-1
5.018081059E0,9.838688850E0,4.947160780E-1,-6.669993401E-1
5.037542934E0,9.752547264E0,5.078766346E-1,-6.939185858E-1
5.057004704E0,9.678369522E0,4.175475538E-1,-6.753742099E-1
5.076466579E0,9.680762291E0,4.085744619E-1,-7.339983582E-1
5.095928454E0,9.707083702E0,5.252245665E-1,-7.836494446E-1
5.115390225E0,9.689735413E0,6.239284873E-1,-7.818548083E-1
5.134852100E0,9.771091461E0,5.545366406E-1,-8.614161611E-1
5.154313871E0,9.940981865E0,5.515456200E-1,-9.876375198E-1
5.173775746E0,9.911071777E0,6.340979934E-1,-9.038887620E-1
5.193237621E0,9.862018585E0,7.070791125E-1,-8.315058947E-1
5.212699392E0,9.811170578E0,7.387840152E-1,-8.584251404E-1
5.232161267E0,9.724431038E0,8.045865893E-1,-9.768698215E-1
5.251623038E0,9.616754532E0,7.651050687E-1,-1.161715388E0
5.271084913E0,9.350552559E0,5.778666735E-1,-1.390229940E0
5.290546788E0,8.866603851E0,3.451646566E-1,-1.633101463E0
5.310008559E0,8.312067986E0,1.531406492E-1,-1.862214208E0
5.329470434E0,7.820940971E0,1.304088384E-1,-2.132603168E0
5.348932204E0,7.223931789E0,1.992024779E-1,-2.401795626E0
5.368394079E0,6.337988853E0,3.230310678E-1,-2.659622431E0
5.387855954E0,5.184648514E0,4.372883439E-1,-2.490330219E0
5.407317725E0,4.289134502E0,6.233302951E-1,-1.330409408E0
5.426779600E0,4.289134502E0,7.082754970E-1,5.826523304E-1
5.446241371E0,4.958526611E0,6.388836503E-1,1.596610904E0
5.465703246E0,5.752345562E0,5.922235847E-1,7.208378315E-1
5.485165017E0,6.881159782E0,5.826523304E-1,-1.052243710E0
5.504626892E0,8.734998703E0,5.838487148E-1,-2.047657967E0
5.524088767E0,1.267597771E1,5.569294691E-1,-1.723430514E0
5.543550538E0,1.806760597E1,8.410771489E-1,-1.106680512E0
5.563012413E0,2.272224426E1,1.124028444E0,-2.013560295E0
5.582474184E0,2.590410042E1,6.592226624E-1,-4.113860130E0
5.601936059E0,2.800918579E1,-4.899304509E-1,-5.443671703E0
5.621397934E0,2.848774910E1,-9.415757060E-1,-4.508078098E0
5.640859704E0,2.625285339E1,-5.988038778E-1,-3.410968781E0
5.660321579E0,2.192782593E1,-1.956132501E-1,-3.677768469E0
5.679783350E0,1.651645851E1,4.366901144E-2,-4.005585194E0
5.699245225E0,1.125164986E1,2.081755698E-1,-3.635894060E0
5.718706996E0,6.975676060E0,-5.324030295E-2,-2.723630428E0
5.738168871E0,3.232105255E0,-5.437689424E-1,-1.839482427E0
5.757630746E0,-1.633101404E-1,-9.014959335E-1,-9.337990284E-1
5.777092517E0,-2.985644341E0,-4.516452849E-1,1.794617027E-1
5.796554392E0,-4.373481750E0,9.517452121E-1,8.811569214E-1
5.816016163E0,-3.689134359E0,1.578664780E0,6.562315822E-1
5.835478038E0,-2.012363911E0,7.465606928E-1,6.179464459E-1
5.854939809E0,-2.518445849E-1,-7.345965505E-1,7.842476368E-1
5.874401684E0,1.459621787E0,-1.547558069E0,4.558327198E-1
5.893863454E0,2.129014015E0,-5.700899959E-1,-3.152543902E-1
5.913325329E0,1.666600943E0,1.646860242E0,-7.836494446E-1
5.932787204E0,7.920243144E-1,2.583052158E0,-1.202393413E0
5.952248975E0,-1.250249892E-1,1.454237938E0,-1.754537225E0
5.971710850E0,-1.549352705E-1,-8.901300430E-1,-2.274976015E0
5.991172621E0,2.050648928E0,-2.253440619E0,-3.443870068E0
6.010634496E0,5.725426197E0,-1.203589797E0,-3.835694790E0
6.030096267E0,1.176610756E1,3.547359705E-1,-5.158925533E0
6.049558142E0,2.342992020E1,2.501097918E0,-3.269193888E0
6.069019913E0,4.417031097E1,1.254437327E0,5.330012321E0
6.088481788E0,5.194519043E1,-1.962712765E0,4.363910198E0
6.107943559E0,3.253162003E1,-6.592226624E-1,7.405785918E-1
6.127405434E0,2.336471748E1,1.004985496E-1,-2.650649309E0
6.146867309E0,1.730908012E1,3.224328458E-1,-4.649254322E0
6.166329079E0,1.131206894E1,5.670989752E-1,-4.733003139E0
6.185790954E0,6.991229534E0,1.060618639E0,-3.764508247E0
6.205252725E0,2.574079037E0,2.109273195E0,-1.346560955E0
6.224714600E0,-3.976273060E0,2.713460922E0,1.508674622E0
6.244176371E0,-7.244270325E0,1.270588875E0,2.563311338E0
6.263638246E0,-6.511468410E0,-1.427318692E0,1.978864312E0
6.283100017E0,-3.256631613E0,-2.440080881E0,1.042672515E0
6.302561892E0,3.020938635E-1,-1.697109461E0,1.190429255E-1
6.322023663E0,1.652842283E0,-5.437689424E-1,-8.237292171E-1
6.341485538E0,6.849454641E-1,6.137589812E-1,-1.308275819E0
6.360947413E0,-3.343969584E-1,1.177866936E0,-1.378864050E0
6.380409184E0,-4.510470629E-1,5.204389095E-1,-6.370890141E-1
6.399871059E0,-2.081755698E-1,-6.071787477E-1,-4.773681164E-1
6.419332829E0,1.498505235E0,-6.334998012E-1,-1.344766378E0
6.438794704E0,9.908080101E0,1.615155302E-2,-1.707877159E0
6.458256475E0,2.569412994E1,1.667797327E0,-4.283152580E0
6.477718350E0,5.707480240E1,7.471588612E0,-2.797209740E0
6.497180121E0,5.345924759E1,7.534400463E0,-1.517647743E0
6.516641996E0,2.737747955E1,-2.263610125E0,1.700100541E0
6.536103871E0,1.622214127E1,-4.907081127E0,-1.133599758E0
6.555565642E0,1.110389328E1,-5.796613097E-1,-1.131805062E0
6.575027517E0,7.819744587E0,4.809573591E-1,-2.080559254E0
6.594489288E0,5.045266628E0,5.742774159E-2,-2.411366940E0
6.613951163E0,4.779663086E-1,3.678964674E-1,-1.412363529E0
6.633412934E0,-5.980261803E0,1.928615093E0,-7.351947427E-1
6.652874809E0,-7.862216949E0,2.966501951E0,-1.760519266E0
6.672336579E0,-5.407779217E0,1.666600943E0,-1.079162955E0
6.691798454E0,-1.427916884E0,6.705885530E-1,6.293123364E-1
6.711260225E0,1.539183140E0,8.093722463E-1,2.009970903E0
6.730722100E0,3.382254839E0,6.939185858E-1,2.062014818E0
6.750183871E0,3.509074450E0,-1.130608693E-1,8.883354068E-1
6.769645746E0,1.988435626E0,-6.969096065E-1,-5.659025311E-1
6.789107517E0,2.392822690E-2,-5.078766346E-1,-1.828116536E0
6.808569392E0,-1.275972724E0,-2.739782035E-1,-2.943770170E0
6.828031163E0,7.992027402E-1,-2.656033039E-1,-3.486940861E0
6.847493038E0,6.088537216E0,1.243071318E0,-2.260020971E0
6.866954809E0,1.397528076E1,2.369492531E0,-3.125026464E0
6.886416684E0,2.851945496E1,3.646063566E0,-2.753540754E0
6.905878559E0,5.288138199E1,1.935195327E0,5.230112076E0
6.925340329E0,4.920361328E1,-3.471387386E0,-2.681756020E0
6.944802204E0,2.637608337E1,-1.031306505E0,-1.767099500E0
6.964263975E0,1.806461525E1,1.788634956E-1,-3.780659676E0
6.983725850E0,1.312403393E1,5.264209956E-2,-2.737389088E0
7.003187621E0,8.985049248E0,-6.167500615E-1,-1.111466169E0
7.022649496E0,5.166104317E0,-7.393822074E-1,-3.511467278E-1
7.042111267E0,4.307080805E-1,-9.990034252E-2,5.611169338E-1
7.061573142E0,-5.072185993E0,7.812566161E-1,-7.956135273E-2
7.081034913E0,-6.842276573E0,1.503889084E0,-1.201795220E0
7.100496788E0,-4.156332970E0,1.651645780E0,2.410768867E-1
7.119958559E0,-1.856830359E0,1.329811215E0,2.303091764E0
7.139420434E0,-2.225325108E-1,1.710868180E-1,2.477169752E0
7.158882204E0,5.455635786E-1,-1.539183140E0,1.654636860E0
7.178344079E0,5.796613097E-1,-2.702693224E0,4.157529473E-1
7.197805850E0,1.501496136E-1,-2.078166485E0,-7.914260626E-1
7.217267725E0,1.788634956E-1,-4.402793646E-1,-1.514656782E0
7.236729496E0,1.316052437E0,1.113260746E0,-2.906681299E0
7.256191371E0,4.824528694E0,2.756531715E0,-5.368896008E0
7.275653142E0,1.711466408E1,4.783850670E0,-3.037090063E0
7.295115017E0,4.477748871E1,2.980260611E0,2.700300455E0
7.314576788E0,6.155117416E1,-8.297112584E-1,-1.264367485E1
7.334038663E0,3.858426666E1,-9.690931439E-2,2.428116798E0
7.353500434E0,2.207019997E1,-2.572284341E-1,7.472187042E0
7.372962309E0,1.249711418E1,-3.379862010E-1,-3.924229145E-1
7.392424184E0,7.775477409E0,5.407779217E-1,-5.077569485E0
7.411885954E0,4.950151920E0,7.405785918E-1,-4.604389191E0
7.431347725E0,1.200598717E0,3.529413342E-1,-2.353341103E0
7.450809600E0,-4.104289055E0,8.374879509E-2,-4.917250574E-1
7.470271371E0,-7.554739475E0,5.000999570E-1,-6.873382926E-1
7.489733246E0,-5.873781204E0,5.820540786E-1,-9.840483069E-1
7.509195017E0,-1.890928149E0,2.452643216E-1,6.508477330E-1
7.528656892E0,9.942178130E-1,-3.176472187E-1,2.297109842E0
7.548118663E0,2.816352367E0,-2.685943544E-1,3.235096216E0
7.567580538E0,3.219542980E0,-8.913264424E-2,2.760719061E0
7.587042309E0,2.070987940E0,3.565305769E-1,1.155135155E0
7.606504184E0,8.344969153E-1,1.062413216E0,-1.134197950E0
7.625965954E0,-3.337987661E-1,7.363911867E-1,-2.565105915E0
7.645427829E0,2.620140910E-1,-9.553344250E-1,-3.611367464E0
7.664889600E0,3.777668715E0,-9.320043921E-1,-3.242274761E0
7.684351475E0,9.153742790E0,8.243274093E-1,-3.282354355E0
7.703813246E0,2.017448616E1,2.639881611E0,-4.332803726E0
7.723275121E0,4.067858505E1,3.025125980E0,2.184048891E0
7.742736892E0,5.697849274E1,-3.081357241E0,2.468196630E0
7.762198767E0,3.478266907E1,-2.876770973E0,-1.878365755E0
7.781660538E0,2.302194405E1,2.772084951E0,-2.003988922E-1
7.801122413E0,1.772184181E1,3.379862070E0,-4.176671982E0
7.820584184E0,1.274477196E1,2.937189937E-1,-4.479962349E0
7.840046059E0,8.550751686E0,-2.081755638E0,-2.467598438E0
7.859507829E0,4.318446636E0,-1.890928149E0,3.140579760E-1
7.878969704E0,-3.355933726E-1,-5.072783828E-1,1.756331801E0
7.898431475E0,-4.784449100E0,5.593222976E-1,6.352944374E-1
7.917893246E0,-6.636493683E0,1.387837172E0,-1.048056364E0
7.937355121E0,-5.505286694E0,1.800000787E0,-5.054838061E-1
7.956816892E0,-2.982653379E0,1.564906001E0,7.651050687E-1
7.976278767E0,-7.866404653E-1,4.253242314E-1,8.165507317E-1
7.995740538E0,7.477570772E-1,-9.116654396E-1,1.417747438E-1
8.015202413E0,1.483550072E0,-1.401595831E0,-4.313062727E-1
8.034664184E0,1.321436286E0,-3.373879790E-1,-5.168496966E-1
8.054126059E0,9.391828775E-1,3.577269912E-1,-3.595215976E-1
8.073587829E0,2.245664120E0,3.014956415E-1,-1.426122308E0
8.093049704E0,5.620740414E0,9.684949517E-1,-3.320639610E0
8.112511475E0,1.619342804E1,3.154936552E0,-1.481157184E0
8.131973350E0,4.025624847E1,3.598805189E0,4.003790379E0
8.151435121E0,5.999703598E1,-4.043870270E-1,-1.069412231E1
8.170896996E0,3.544069290E1,-7.202396393E-1,-3.512065411E0
8.190358767E0,2.250748825E1,2.041675806E0,3.460021496E0
8.209820642E0,1.528236008E1,1.628913999E0,1.226321578E0
8.229282413E0,9.973284721E0,1.351944804E0,-2.030309916E0
8.248744288E0,6.929016113E0,1.461416483E0,-3.053241730E0
8.268206059E0,3.534198999E0,2.099701911E-1,-2.568695068E0
8.287667829E0,-1.378265858E0,-9.284151793E-1,-1.819143414E0
8.307129704E0,-6.879364967E0,-6.287141442E-1,-8.931210637E-1
8.326591475E0,-7.789236069E0,6.562315822E-1,-1.128215909E0
8.346053350E0,-4.517649174E0,1.408176184E0,-5.784648657E-1
8.365515121E0,-6.436693072E-1,8.889335990E-1,1.048056364E0
8.384976996E0,1.757528186E0,-1.142572835E-1,2.843869686E0
8.404438767E0,3.233899832E0,-7.387840152E-1,3.305086374E0
8.423900538E0,3.498306751E0,-9.996016622E-1,1.954936147E0
8.443362413E0,2.673381090E0,-1.938186288E-1,-3.074777126E-1
8.462824184E0,1.026520967E0,8.829515576E-1,-2.026122570E0
8.482286059E0,-7.238288224E-2,9.714859724E-1,-2.395813704E0
8.501747829E0,1.673779488E0,4.648058116E-1,-2.785245657E0
8.521209704E0,6.598208427E0,4.648058116E-1,-3.775275946E0
8.540671475E0,1.491565990E1,9.690931439E-1,-5.300102234E0
8.560133246E0,2.963451004E1,3.998406649E0,-1.813161373E0
8.579595121E0,4.822135925E1,3.455235958E0,6.504290104E0
8.599056892E0,4.525246429E1,-2.953939438E0,-2.590230405E-1
8.618518767E0,2.662553596E1,-6.520441920E-2,-1.036092162E0
8.637980538E0,2.051187325E1,1.410568953E0,-4.189234257E0
8.657442413E0,1.617009735E1,6.628118753E-1,-6.224927902E0
8.676904184E0,1.190249825E1,-8.512466550E-1,-4.366302967E0
8.696366059E0,8.061419487E0,-1.258026481E0,-1.321436286E0
8.715827829E0,4.188635826E0,2.392822653E-1,1.208375454E0
8.735289600E0,-4.689932466E-1,1.440479279E0,2.346760750E0
8.754751475E0,-4.561916351E0,1.166501045E0,8.991031051E-1
8.774213246E0,-5.645864964E0,1.800599098E-1,-1.240080357E0
8.793675121E0,-4.269393921E0,4.313062727E-1,-4.594219327E-1
8.813136892E0,-2.017747641E0,7.740781307E-1,1.498505235E0
8.832598767E0,-3.152543902E-1,2.506481707E-1,1.730608940E0
8.852060538E0,3.631108403E-1,-8.273184299E-1,6.616154313E-1
8.871522309E0,4.277170599E-1,-1.302293777E0,0.000000000E0
8.890984184E0,1.860419661E-1,-1.080359459E0,-6.173482537E-1
8.910445954E0,3.906283081E-1,-3.337987661E-1,-1.236491084E0
8.929907829E0,1.363908887E0,1.127019525E0,-2.250449657E0
8.949369600E0,5.751747608E0,3.775275946E0,-2.747558594E0
8.968831475E0,2.342334175E1,5.240281582E0,5.009374142E0
8.988293246E0,5.705087280E1,-1.915454507E0,-5.227719307E0
9.007755017E0,5.746124268E1,9.194421172E-1,-1.239422321E1
9.027216892E0,2.758086967E1,5.658427238E0,2.443071842E0
9.046678663E0,1.617787361E1,1.993819475E0,1.347159147E0
9.066140538E0,9.215357780E0,-1.348355532E0,-2.499901533E0
9.085602309E0,5.402395248E0,7.405785918E-1,-1.844268084E0
9.105064184E0,2.315654039E0,9.050851464E-1,-8.644071817E-1
9.124525954E0,-2.304886341E0,-8.799605370E-1,-5.096712112E-1
9.143987725E0,-7.738388538E0,-1.852044702E0,-1.063011408E0
9.163449600E0,-7.612765312E0,-7.704889178E-1,-2.262413740E0
9.182911371E0,-3.545564890E0,8.171489239E-1,-2.285145670E-1
9.202373246E0,-1.902294010E-1,1.228116274E0,1.502692580E0
9.221835017E0,1.826920033E0,1.660618901E0,2.130210400E0
9.241296788E0,2.408375978E0,1.672582984E0,1.600798368E0
9.260758663E0,2.199602127E0,6.951149702E-1,4.139583111E-1
9.280220434E0,1.543968797E0,3.637090325E-1,-1.045065284E0
9.299682309E0,8.745766878E-1,1.226321608E-1,-1.943570137E0
9.319144079E0,1.791027784E0,-1.902294010E-1,-2.032702923E0
9.338605850E0,5.407180786E0,4.737788737E-1,-1.759921074E0
9.358067725E0,1.169432259E1,1.325025558E0,-2.900699139E0
9.377529496E0,2.636651230E1,2.343171597E0,-8.267202377E-1
9.396991371E0,5.052564621E1,2.158924341E0,6.380461693E0
9.416453142E0,4.747599411E1,-3.315854073E0,-8.721838593E-1
9.435914913E0,2.486023140E1,1.339980662E-1,-1.470389485E0
9.455376788E0,1.924308014E1,2.429911375E0,-4.777270317E0
9.474838559E0,1.558565044E1,2.031506538E0,-5.301896572E0
9.494300434E0,1.068275642E1,3.589233849E-3,-2.598007202E0
9.513762204E0,5.772086620E0,-1.338784218E0,5.665007830E-1
9.533223975E0,1.420140266E0,-1.161715388E0,2.221137524E0
9.552685850E0,-2.632104874E0,-3.547359705E-1,2.114656925E0
9.572147621E0,-4.796412945E0,2.410768867E-1,-4.845465720E-1
9.591609496E0,-4.346562386E0,6.484549642E-1,-1.964507341E0
9.611071267E0,-2.301895380E0,1.348355532E0,-3.451646566E-1
9.630533038E0,-1.003789067E0,1.342971683E0,8.949156404E-1
9.649994913E0,-4.522434771E-1,5.820540786E-1,5.515456200E-1
9.669456684E0,-7.298108935E-2,-2.249253243E-1,-3.254238665E-1
9.688918559E0,3.296113312E-1,-3.260220885E-1,-8.739784956E-1
9.708380329E0,8.931210637E-1,2.195414752E-1,-1.026520967E0
9.727842100E0,2.011765718E0,3.672982752E-1,-1.667199135E0
9.747303975E0,5.570491314E0,1.012163997E0,-2.281556368E0
9.766765746E0,1.531466293E1,2.472982168E0,-9.002995491E-1
9.786227621E0,4.566283417E1,1.467996716E0,5.748157978E0
9.805689392E0,6.107918930E1,-4.438686073E-1,-1.194078350E1
9.825151163E0,3.374597931E1,2.298904419E0,-8.047660828E0
9.844613038E0,1.995554352E1,4.223930359E0,3.577269793E0
9.864074809E0,1.343390465E1,3.708875179E0,2.801995277E0
9.883536684E0,7.278368473E0,1.938186288E-1,5.617151260E-1
9.902998454E0,4.185645103E0,-9.230313301E-1,-2.160120726E0
9.922460225E0,8.775677085E-1,-1.208973646E0,-2.967698336E0
9.941922100E0,-4.886143684E0,-1.010967612E0,-2.131406784E0
9.961383871E0,-8.531010628E0,-6.640082598E-2,-1.266999602E0
9.980845642E0,-6.719046116E0,9.128618240E-1,-1.037886858E0
1.000030752E1,-2.245065928E0,1.273579836E0,-2.309073806E-1
1.001976929E1,6.035895348E-1,7.920243144E-1,8.530412912E-1
1.003923116E1,2.127817631E0,7.615157962E-1,1.739582062E0
1.005869293E1,2.743969440E0,6.227321029E-1,1.782652855E0
1.007815470E1,1.962114573E0,1.884347796E-1,1.107278705E0
1.009761658E1,6.921239495E-1,3.553341627E-1,-2.931207716E-1
1.011707835E1,8.691928387E-1,5.862415433E-1,-1.956132531E0
1.013654012E1,3.348157167E0,4.935196638E-1,-3.239283562E0
1.015600200E1,8.070990562E0,5.814558864E-1,-4.627120972E0
1.017546377E1,1.783729553E1,-5.024927482E-2,-6.008377552E0
1.019492554E1,4.033940125E1,1.202991605E0,5.898307562E-1
1.021438741E1,5.785964966E1,8.512466550E-1,1.709671736E0
1.023384918E1,3.111626625E1,2.580659151E0,8.081758618E-1
1.025331106E1,2.205763817E1,3.090330362E0,-7.573283911E-1
1.027277283E1,1.920060730E1,1.092323542E0,-4.187439442E0
1.029223460E1,1.448734474E1,-1.012163997E0,-4.630710125E0
1.031169648E1,9.118449211E0,-1.993819475E0,-3.690330744E0
1.033115825E1,5.444868088E0,-8.117650747E-1,-2.058425665E0
1.035062002E1,1.996212244E0,1.092323542E0,-1.244267747E-1
1.037008189E1,-2.060818434E0,1.539781332E0,9.248259664E-1
1.038954366E1,-5.148756027E0,6.957131624E-1,1.369891018E-1
1.040900543E1,-5.712265968E0,-1.794616925E-3,-1.160518974E-1
1.042846731E1,-4.073182583E0,1.226321608E-1,1.287936807E0
1.044792908E1,-1.869392633E0,-1.094716340E-1,1.841875196E0
1.046739085E1,-5.682953820E-2,-7.064808607E-1,1.392622828E0
1.048685272E1,4.683950245E-1,-1.460818172E0,3.415754437E-1
1.050631450E1,3.421736360E-1,-1.338186026E0,-8.297112584E-1
1.052577627E1,5.880361795E-1,-2.291127741E-1,-1.904686809E0
1.054523814E1,1.942971945E0,1.130608678E0,-3.192025423E0
1.056469991E1,6.344569206E0,2.831905603E0,-4.638486862E0
1.058416168E1,1.566999722E1,5.724229813E0,-2.764906645E0
1.060362356E1,3.657788467E1,3.985246181E0,5.231906891E0
1.062308533E1,6.155715561E1,1.052841991E-1,-1.091665554E1
1.064254720E1,3.645405579E1,-2.378465652E0,-7.228717327E0
1.066200898E1,2.352025032E1,-2.811566591E-1,2.761317253E0
1.068147075E1,1.430249882E1,-9.631111473E-2,2.941975355E0
1.070093262E1,8.118248940E0,3.750749528E-1,-1.153340459E0
1.072039439E1,5.062016487E0,1.514058471E0,-3.060420275E0
1.073985616E1,1.636690736E0,1.633699656E0,-3.249453068E0
1.075931804E1,-4.307080746E0,8.404789567E-1,-2.066202402E0
1.077877981E1,-8.398209572E0,-2.129612118E-1,-1.677966833E0
1.079824158E1,-6.708876610E0,-3.260220885E-1,-1.969292998E0
1.081770345E1,-2.277967215E0,3.834498227E-1,-1.022931710E-1
1.083716523E1,7.172485590E-1,7.190431952E-1,1.797608018E0
1.085662700E1,2.395813704E0,3.571287692E-1,2.994019270E0
1.087608887E1,2.760719061E0,-2.757728100E-1,2.996412039E0
1.089555064E1,1.698305845E0,-7.166503668E-1,1.911865234E0
1.091501241E1,1.098305583E0,-3.068794906E-1,-1.142572835E-1
1.093447429E1,1.040279627E0,4.199403822E-1,-2.385644197E0
1.095393606E1,3.008376360E0,1.142572761E0,-4.307080746E0
1.097339783E1,7.661818027E0,2.834896564E0,-5.407180786E0
1.099285970E1,1.569751453E1,2.627319336E0,-5.685346603E0
1.101232148E1,3.157688332E1,2.483151674E0,-3.439682424E-1
1.103178325E1,5.351189041E1,6.490531564E-1,4.926223755E0
1.105124512E1,3.665983582E1,-1.890329868E-1,6.406782866E-1
1.107070689E1,2.171366882E1,2.239681959E0,1.453639716E-1
1.109016866E1,1.876810455E1,7.651050687E-1,-3.967299938E0
1.110963054E1,1.668874168E1,-8.775677085E-1,-5.402395248E0
1.112909231E1,1.204068375E1,-1.058225870E0,-2.558525562E0
1.114855408E1,6.935596466E0,-1.501496136E-1,-2.500499785E-1
1.116801595E1,2.943171740E0,1.044467092E0,6.221339107E-1
1.118747772E1,-9.786644578E-1,1.052243710E0,4.235295951E-1
1.120693950E1,-4.195814610E0,2.584248483E-1,-2.093719840E-1
1.122640127E1,-5.431109428E0,-1.016949583E-2,-4.881358147E-1
1.124586314E1,-4.160520554E0,5.060819983E-1,4.905286431E-2
1.126532491E1,-1.858624935E0,9.493523836E-1,6.987041831E-1
1.128478668E1,-1.292124242E-1,4.971089065E-1,5.437689424E-1
1.130424856E1,4.827519655E-1,-4.821537733E-1,1.357926875E-1
1.132371033E1,5.132604837E-1,-1.229910851E0,1.908276081E-1
1.134317210E1,6.532405615E-1,-1.616351724E0,4.624129832E-1
1.136263398E1,1.846062660E0,-1.529611826E0,-7.782655358E-1
1.138209575E1,4.134797573E0,2.691925503E-2,-2.947359324E0
1.140155752E1,9.315856934E0,2.759522676E0,-5.109274387E0
1.142101939E1,2.627259445E1,6.412166595E0,-9.517452121E-1
1.144048116E1,5.717111206E1,4.347758770E0,3.408575773E0
1.145994293E1,4.684548569E1,-2.440679073E0,-7.644470215E0
1.147940481E1,2.840519714E1,-3.062812984E-1,-5.237290382E0
1.149886658E1,1.914975929E1,1.354935765E0,8.237292171E-1
1.151832835E1,1.186062336E1,1.877767563E0,2.002792597E0
1.153779022E1,6.424130440E0,1.410568953E0,-9.631111473E-2
1.155725200E1,3.674179077E0,1.095314622E0,-2.184048891E0
1.157671377E1,1.686939895E-1,6.131607890E-1,-2.517847538E0
1.159617564E1,-5.751149178E0,6.999006122E-2,-1.528415442E0
1.161563741E1,-8.338987350E0,-9.553344250E-1,-1.348953724E0
1.163509918E1,-6.413960934E0,-1.465005636E0,-1.450648785E0
1.165456095E1,-1.938784599E0,-1.609173268E-1,1.794617064E-2
1.167402283E1,8.847461939E-1,1.034895778E0,1.764108539E0
1.169348460E1,2.377269268E0,1.280160069E0,2.829512835E0
1.171294637E1,1.941177368E0,8.494520187E-1,2.627319336E0
1.173240825E1,6.681957245E-1,8.650053740E-1,1.591825247E0
1.175187002E1,6.442674994E-1,6.293123364E-1,-1.040877849E-1
1.177133179E1,2.557329178E0,7.058826834E-2,-2.962912560E0
1.179079356E1,5.684150219E0,2.793620527E-1,-5.388636589E0
1.181025543E1,1.085503960E1,7.668996453E-1,-6.554539204E0
1.182971720E1,2.085703850E1,9.894321561E-1,-4.080360889E0
1.184917898E1,4.322813416E1,1.700100541E0,5.356333256E0
1.186864085E1,4.856173706E1,-9.116654396E-1,2.793620348E0
1.188810262E1,2.741815758E1,1.450050473E0,5.563312769E-1
1.190756439E1,2.370090866E1,2.331805706E0,-3.257229805E0
1.192702616E1,2.102573204E1,9.212366939E-1,-5.121238708E0
1.194648804E1,1.526740456E1,-4.923232496E-1,-4.683950424E0
1.196594981E1,9.678967476E0,2.500499785E-1,-2.893520832E0
1.198541158E1,5.621338367E0,1.913061738E0,-9.517452121E-1
1.200487345E1,2.088335991E0,2.232503414E0,1.363908947E-1
1.202433523E1,-1.723430514E0,6.604190469E-1,1.920240223E-1
1.204379700E1,-4.795216560E0,-1.357328653E0,-1.004985496E-1
1.206325877E1,-5.748756409E0,-2.142174482E0,5.754738450E-1
1.208272064E1,-4.128815651E0,-1.764706731E0,1.588834286E0
1.210218241E1,-1.569691658E0,-8.518448472E-1,1.033101201E0
1.212164418E1,2.841476798E-1,1.830509305E-1,-7.178467698E-3
1.214110595E1,6.640082598E-1,5.952146053E-1,-7.250252366E-1
1.216056783E1,4.157529473E-1,3.810569942E-1,-1.596012712E0
1.218002960E1,2.817548811E-1,4.247260094E-1,-1.808375716E0
1.219949137E1,8.967102766E-1,2.075773627E-1,-1.202393413E0
1.221895325E1,3.345764160E0,2.512463741E-2,-1.689931035E0
1.223841502E1,8.921639442E0,1.492523074E0,-3.416950703E0
1.225787679E1,2.522094917E1,4.028316975E0,6.233302951E-1
1.227733856E1,5.677031708E1,2.823530674E0,4.402793646E-1
1.229680043E1,5.295196915E1,1.730010748E0,-1.223928738E1
1.231626220E1,2.651725960E1,1.140778184E0,-3.118446112E0
1.233572398E1,1.752383614E1,1.108475089E0,1.524826288E0
1.235518585E1,1.114098263E1,2.494517565E-1,7.262216806E-1
1.237464762E1,7.259225845E0,1.688136339E0,-1.852642894E0
1.239410939E1,4.273581028E0,1.269392371E0,-3.627519131E0
1.241357127E1,1.435693651E-1,5.234299302E-1,-3.222533941E0
1.243303304E1,-5.851647854E0,1.794616925E-3,-1.442273855E0
1.245249481E1,-8.270193100E0,-3.236292601E-1,-4.737788737E-1
1.247195658E1,-5.791228771E0,-1.345962733E-1,3.098705411E-1
1.249141845E1,-1.873580098E0,-1.698904037E-1,1.621735573E0
1.251088023E1,1.149751306E0,-3.643072546E-1,2.644667149E0
1.253034200E1,2.579462767E0,-1.591227055E-1,2.638685226E0
1.254980377E1,2.146361828E0,3.439682424E-1,1.645065546E0
1.256926564E1,1.277169108E0,8.231309652E-1,3.068794906E-1
1.258872741E1,7.854440212E-1,1.156331539E0,-1.338186026E0
1.260818918E1,1.319641709E0,1.015154958E0,-3.396013498E0
1.262765095E1,3.320639610E0,7.088736892E-1,-3.781856298E0
1.264711283E1,6.733402729E0,2.973082066E-1,-3.053241730E0
1.266657460E1,1.401177120E1,-1.197607756E0,-4.189234257E0
1.268603637E1,3.068735313E1,4.414757788E-1,6.221338734E-2
1.270549814E1,5.383312607E1,3.479762316E0,4.939383984E0
1.272496002E1,3.821337891E1,4.812564373E0,2.492124796E0
1.274442179E1,2.521436882E1,1.641476393E0,7.106683254E-1
1.276388356E1,2.267797661E1,-1.067198873E0,-1.840080619E0
1.278334533E1,1.950629044E1,-3.065205812E0,-3.183052301E0
1.280280720E1,1.352303696E1,-1.638485312E0,-2.629712105E0
1.282226898E1,8.454441071E0,7.112665176E-1,-1.402194023E0
1.284173075E1,4.268197536E0,1.685145378E0,-4.336991012E-1
1.286119252E1,-2.745763958E-1,1.154536963E0,-1.770688742E-1
1.288065439E1,-4.844867706E0,-1.734796353E-2,-4.785645306E-1
1.290011616E1,-7.152745247E0,-2.297109663E-1,-5.802595019E-1
1.291957793E1,-5.961717606E0,-1.100698411E-1,-1.698904037E-1
1.293903970E1,-3.080160856E0,-1.884347796E-1,3.050848842E-1
1.295850158E1,3.786641955E-1,1.208375469E-1,2.739782035E-1
1.297796335E1,2.455634356E0,3.978067636E-1,3.433700502E-1
1.299742512E1,2.093719721E0,-1.022931710E-1,-6.406782866E-1
1.301688689E1,6.484549642E-1,1.244267747E-1,-1.801197290E0
1.303634877E1,-7.782655358E-1,9.068797827E-1,-1.770688772E0
1.305581054E1,-7.974081635E-1,9.044869542E-1,-1.347757339E0
1.307527231E1,3.736392498E0,1.159322619E0,-2.507678032E0
1.309473408E1,1.624427414E1,2.985644341E0,-1.200000525E0
1.311419595E1,4.305405807E1,2.596810818E0,2.650649309E0
1.313365772E1,6.559384918E1,3.774677753E0,-1.531227016E1
1.315311950E1,3.448296738E1,1.861616015E0,-5.829514027E0
1.317258127E1,1.973241234E1,1.908874273E0,2.752344131E0
1.319204314E1,1.252702427E1,4.055834413E-1,2.277369022E0
1.321150491E1,8.099704742E0,3.373879790E-1,8.673982322E-2
1.323096668E1,5.572285652E0,3.870390654E-1,-1.706680775E0
1.325042845E1,2.372483730E0,-6.574280262E-1,-3.195016384E0
1.326989033E1,-2.449054003E0,-1.170688510E0,-2.790629387E0
1.328935210E1,-7.174280643E0,-3.708875179E-2,-1.283749342E0
1.330881387E1,-6.754938126E0,1.481157184E0,2.213360928E-2
1.332827564E1,-3.289532900E0,1.328016520E0,1.515853167E0
1.334773752E1,-2.673979402E-1,-3.846462369E-1,1.830509305E0
1.336719929E1,1.310070395E0,-9.044869542E-1,1.110867858E0
1.338666106E1,1.420140266E0,1.435693651E-1,-2.715853751E-1
1.340612283E1,8.775677085E-1,1.765903115E0,-2.579462767E0
1.342558470E1,8.255237937E-1,2.267199516E0,-3.963112593E0
1.344504648E1,1.210170031E0,1.252044439E0,-3.317050457E0
1.346450825E1,3.569493294E0,8.524430394E-1,-1.710269928E0
1.348397002E1,8.306683540E0,-2.123630047E-1,-8.374879137E-3
1.350343179E1,1.592124367E1,-2.089532375E0,-1.369292736E0
1.352289366E1,3.134597588E1,-1.962712765E0,1.124028444E0
1.354235543E1,5.103113174E1,3.373879790E-1,4.615755081E0
1.356181720E1,3.619503021E1,3.792025566E0,7.100701332E-1
1.358127898E1,2.413819695E1,3.984647989E0,5.742774159E-2
1.360074085E1,2.010330009E1,4.671986103E-1,-2.148754835E0
1.362020262E1,1.658465385E1,-3.208775282E0,-3.139981508E0
1.363966439E1,1.208195972E1,-3.996013880E0,-2.798406124E0
1.365912616E1,7.735397339E0,-1.935793519E0,-1.895115495E0
1.367858804E1,4.015156269E0,9.625129104E-1,-6.957131624E-1
1.369804981E1,-4.492524564E-1,2.569891453E0,-2.392822644E-3
1.371751158E1,-4.455435753E0,2.471187592E0,-4.031906128E-1
1.373697335E1,-6.542575359E0,1.307677627E0,-1.301695466E0
1.375643522E1,-5.554339409E0,3.367897868E-1,-8.416753411E-1
1.377589700E1,-2.928216696E0,-4.247260094E-2,2.835494876E-1
1.379535877E1,-2.368894368E-1,-1.740778536E-1,3.026920557E-1
1.381482054E1,1.424327731E0,-1.800599098E-1,2.793620527E-1
1.383428231E1,1.502692580E0,-1.465603858E-1,-1.136590727E-2
1.385374418E1,1.012163997E0,2.781656384E-1,-6.664010882E-1
1.387320595E1,1.389033556E0,7.232306600E-1,-1.403988719E0
1.389266772E1,3.719642878E0,9.942178130E-1,-2.538784742E0
1.391212950E1,9.629914284E0,2.353341103E0,-3.361915827E0
1.393159137E1,2.442234421E1,5.057230473E0,1.660020709E0
1.395105314E1,5.435176849E1,1.733001828E0,4.832305431E0
1.397051491E1,5.554578781E1,1.746760458E-1,-1.345065403E1
1.398997668E1,2.885325432E1,1.313659668E0,-1.724028707E0
1.400943856E1,1.629213142E1,2.347957134E0,3.227917671E0
1.402890033E1,9.601799011E0,8.829515576E-1,1.660020709E0
1.404836210E1,6.043073654E0,7.004988194E-1,-2.026720762E0
1.406782387E1,4.122235298E0,6.496513486E-1,-3.607180119E0
1.408728575E1,8.386843204E-1,1.034895778E-1,-2.699103832E0
1.410674752E1,-5.045864582E0,-6.885347366E-1,-8.907282352E-1
1.412620929E1,-8.212167740E0,-1.677368641E0,-6.945167780E-1
1.414567106E1,-5.848058701E0,-1.259222865E0,-1.409372568E0
1.416513283E1,-1.588235974E0,4.301098585E-1,-6.029912829E-1
1.418459470E1,1.109671474E0,1.293320656E0,7.238288522E-1
1.420405648E1,2.468196630E0,1.481755376E0,1.939382792E0
1.422351825E1,2.098505497E0,6.801598072E-1,1.879562140E0
1.424298002E1,5.844469070E-1,-3.607180119E-1,3.415754437E-1
1.426244179E1,2.991028316E-2,-4.839483798E-1,-1.122233868E0
1.428190366E1,1.460219979E0,-2.063809484E-1,-2.601596355E0
1.430136543E1,4.142574310E0,7.716853023E-1,-3.464807272E0
1.432082720E1,9.055637360E0,1.412961721E0,-3.701098442E0
1.434028898E1,1.839123535E1,4.695914388E-1,-3.056232691E0
1.435975075E1,3.786342621E1,9.104689956E-1,2.105684042E0
1.437921262E1,5.248058319E1,1.210768223E0,2.055434704E0
1.439867439E1,3.175514984E1,2.671586514E0,3.188436031E-1
1.441813616E1,2.400001144E1,3.369094372E0,-6.305087805E-1
1.443759793E1,2.037069702E1,2.751746029E-2,-3.755535126E0
1.445705981E1,1.607617950E1,-2.417349100E0,-4.096512318E0
1.447652158E1,1.108833981E1,-1.646261930E0,-2.403590441E0
1.449598335E1,6.991827965E0,2.189432681E-1,-7.280163169E-1
1.451544512E1,2.610569477E0,1.489532113E0,6.119644046E-1
1.453490689E1,-1.889133453E0,1.694716692E0,7.280163169E-1
1.455436877E1,-4.744967461E0,9.720842242E-1,5.144568533E-2
1.457383054E1,-5.636891842E0,2.931207716E-1,-1.627119333E-1
1.459329231E1,-4.457828522E0,-3.714857101E-1,9.332008660E-2
1.461275408E1,-2.312064886E0,-4.450650215E-1,-1.244267747E-1
1.463221585E1,-4.785645306E-1,-1.531406492E-1,-5.024927258E-1
1.465167772E1,3.373879790E-1,-4.486542568E-2,-6.699903607E-1
1.467113950E1,2.787638307E-1,1.286142170E-1,-8.919246197E-1
1.469060127E1,4.277170599E-1,4.827519655E-1,-8.769695163E-1
1.471006304E1,1.274776220E0,9.062815905E-1,-8.231309652E-1
1.472952481E1,3.930809498E0,7.082754970E-1,-1.393221021E0
1.474898658E1,9.893723488E0,1.630110383E0,-2.288136721E0
1.476844845E1,2.974637413E1,2.767299414E0,2.255235434E0
1.478791023E1,6.120122528E1,7.034898400E-1,-1.629512191E0
1.480737200E1,4.384488678E1,1.599601984E0,-1.150588799E1
1.482683377E1,2.622114944E1,2.703889608E-1,-2.717050076E0
1.484629554E1,1.788754654E1,1.426122308E0,2.784049034E0
1.486575741E1,1.127617645E1,1.356730461E0,4.474578202E-1
1.488521918E1,7.095317364E0,1.724626899E0,-2.642274380E0
1.490468095E1,3.468994617E0,1.245464206E0,-3.552743435E0
1.492414273E1,-1.357328653E0,3.050848842E-1,-2.941377163E0
1.494360450E1,-5.715855122E0,-8.584251404E-1,-1.709671736E0
1.496306637E1,-7.356134892E0,-9.906286001E-1,-1.165902853E0
1.498252814E1,-5.837290764E0,-2.991028316E-2,-5.593222976E-1
1.500198991E1,-1.990230203E0,5.006981492E-1,3.565305769E-1
1.502145168E1,6.418746710E-1,3.780659735E-1,1.387238979E0
1.504091345E1,1.747956991E0,3.505485058E-1,2.024926186E0
1.506037533E1,1.189831018E0,3.475574851E-1,1.490130305E0
1.507983710E1,4.169493318E-1,1.020538807E0,-4.217349887E-1
1.509929887E1,3.954139352E-1,2.205584288E0,-2.441875458E0
1.511876064E1,2.041675806E0,2.206182480E0,-4.491328239E0
1.513822241E1,5.569892883E0,1.969292998E0,-5.279164791E0
1.515768418E1,1.121336555E1,1.130608693E-1,-4.908277512E0
1.517714595E1,2.339462662E1,-1.185045362E0,-3.137588739E0
1.519660783E1,4.568017960E1,-8.069794178E-1,4.636094093E0
1.521606960E1,4.470570374E1,2.895315289E-1,3.515654564E0
1.523553137E1,2.823949432E1,1.878365755E0,-8.913264275E-1
1.525499314E1,2.403111839E1,1.791027784E0,-4.393222332E0
1.527445491E1,2.093301010E1,-3.409772217E-1,-5.867201328E0
1.529391668E1,1.464048576E1,-1.836491346E0,-3.463012457E0
1.531337856E1,8.604590416E0,-8.937192559E-1,-1.535593987E0
1.533284033E1,4.636094093E0,1.222134113E0,-6.819544733E-2
1.535230210E1,1.086939692E0,1.781456470E0,6.717849374E-1
1.537176387E1,-1.750349760E0,6.879364848E-1,3.355933726E-1
1.539122564E1,-3.984049797E0,-3.050848842E-1,1.166501045E-1
1.541068741E1,-4.877170563E0,-7.884350419E-1,9.930214286E-2
1.543014929E1,-3.777668715E0,-1.037886858E0,1.405783296E-1
1.544961106E1,-1.730608940E0,-2.440679073E-1,-4.253242314E-1
1.546907283E1,-1.070788130E-1,7.465606928E-1,-5.784648657E-1
1.548853460E1,4.223332107E-1,9.547362328E-1,-5.467599630E-1
1.550799637E1,5.341976285E-1,6.203392744E-1,-9.439685345E-1
1.552745814E1,1.268195987E0,2.985046208E-1,-1.126421213E0
1.554692002E1,2.523829699E0,1.615155339E-1,-1.128215909E0
1.556638179E1,4.963312149E0,3.553341627E-1,-1.927418590E0
1.558584356E1,9.300303459E0,1.625923038E0,-2.753540754E0
1.560530533E1,2.295075798E1,2.392822742E0,-1.798206210E0
1.562476710E1,5.102993393E1,5.892325640E-1,1.718046665E0
1.564422887E1,4.466861343E1,1.393221021E0,-3.625126362E0
1.566369075E1,2.973082161E1,-2.368894368E-1,-5.951548100E0
1.568315252E1,2.463829613E1,5.072783828E-1,-1.351944804E-1
1.570261429E1,1.639023781E1,1.791027784E0,2.051845312E0
1.572207606E1,1.037827015E1,1.846062660E0,-2.859423161E-1
1.574153783E1,6.480361938E0,1.138385415E0,-3.448057413E0
1.576099970E1,2.205584288E0,3.361915946E-1,-3.833301783E0
1.578046148E1,-2.980858803E0,-5.485545993E-1,-2.018345833E0
1.579992325E1,-7.403991699E0,-1.042672515E0,-6.382854581E-1
1.581938502E1,-7.902894974E0,-6.526423693E-1,-3.990031779E-1
1.583884679E1,-4.892126083E0,5.144568682E-1,-5.599204898E-1
1.585830856E1,-7.800601721E-1,1.153938770E0,-3.122633696E-1
1.587777043E1,1.634896040E0,1.035493970E0,4.941178858E-1
1.589723220E1,2.667398930E0,6.221339107E-1,1.076171994E0
1.591669398E1,2.509472847E0,1.286142170E-1,7.674978375E-1
1.593615575E1,1.431506157E0,4.785645381E-2,1.208375469E-1
1.595561752E1,6.669993401E-1,1.537388563E-1,-7.477570772E-1
1.597507929E1,1.742573142E0,5.874379873E-1,-2.261217356E0
1.599454106E1,4.607379913E0,2.155334949E0,-4.146163464E0
1.601400293E1,1.071446133E1,2.230110645E0,-5.212165833E0
1.603346470E1,2.123989105E1,1.569093466E0,-3.506681681E0
1.605292648E1,4.096512222E1,1.484746456E0,3.521636724E0
1.607238825E1,4.834638214E1,1.890329868E-1,2.398206472E0
1.609185002E1,2.906442070E1,1.861616015E0,-4.516452849E-1
1.611131179E1,2.245364952E1,1.532004714E0,-1.609173179E0
1.613077366E1,2.022114563E1,-9.110672474E-1,-5.360520840E0
1.615023543E1,1.647039604E1,-1.655833244E0,-5.362315655E0
1.616969720E1,1.107817078E1,3.918247223E-1,-2.850450039E0
1.618915898E1,6.951747894E0,2.060220242E0,-8.518448472E-1
1.620862075E1,2.665006161E0,2.370090723E0,2.021935135E-1
1.622808252E1,-1.047458172E0,7.794619799E-1,3.613162339E-1
1.624754429E1,-4.202394962E0,-1.354935765E0,7.058826834E-2
1.626700616E1,-5.886941910E0,-2.091326952E0,2.961117923E-1
1.628646793E1,-5.183452129E0,-1.682154298E0,7.573283911E-1
1.630592970E1,-2.895913601E0,-5.844469070E-1,6.460621357E-1
1.632539148E1,-1.429711580E-1,4.869394004E-1,3.912265003E-1
1.634485325E1,1.071984529E0,6.717849374E-1,1.328016520E-1
1.636431502E1,7.806583643E-1,6.101697683E-2,-5.862415433E-1
1.638377679E1,6.436693072E-1,2.045863420E-1,-1.350150228E0
1.640323866E1,1.580459356E0,9.954141974E-1,-2.249851465E0
1.642270043E1,4.456034184E0,1.817947030E0,-3.401995659E0
1.644216220E1,9.667003632E0,3.229712248E0,-3.975076675E0
1.646162398E1,2.480340195E1,3.242274761E0,2.653042078E0
1.648108575E1,4.943452072E1,-5.258227587E-1,2.018345833E0
1.650054762E1,5.081517792E1,-1.308874011E0,-1.003071213E1
1.652000939E1,3.094996452E1,1.862214208E0,8.793623000E-2
1.653947116E1,1.901396751E1,3.863810301E0,3.684348583E0
1.655893293E1,1.209751320E1,1.503889084E0,-1.345962733E-1
1.657839470E1,8.142775536E0,9.846464992E-1,-3.492324591E0
1.659785648E1,5.935396671E0,7.292127013E-1,-3.916452408E0
1.661731835E1,2.392822742E0,-9.092725813E-2,-2.618944407E0
1.663678025E1,-2.307877541E0,-1.120439172E0,-1.146162033E0
1.665624202E1,-6.978667259E0,-1.254437327E0,-3.128615618E-1
1.667570380E1,-7.195217609E0,-1.848455518E-1,-7.064808607E-1
1.669516557E1,-4.079762459E0,1.223928809E0,-2.201396823E-1
1.671462734E1,-6.687939167E-1,1.140778184E0,4.193421602E-1
1.673408911E1,1.301097274E0,7.202396393E-1,8.805587292E-1
1.675355088E1,2.042274237E0,7.256234884E-1,7.106683254E-1
1.677301275E1,1.722234130E0,6.759724021E-1,-1.573280841E-1
1.679247452E1,1.460219979E0,4.683950245E-1,-4.313062727E-1
1.681193630E1,2.032104731E0,2.871387079E-2,-1.158724308E0
1.683139807E1,4.488935471E0,2.213360928E-2,-2.338984251E0
1.685085984E1,8.674580574E0,4.612165689E-1,-2.826521635E0
1.687032161E1,1.643809319E1,4.175475538E-1,-2.903092146E0
1.688978338E1,2.832324409E1,2.424527645E0,-4.989035130E-1
1.690924525E1,4.484807587E1,2.954537868E0,3.476771355E0
1.692870702E1,4.028855133E1,5.198407173E-1,-1.319043517E0
1.694816880E1,2.555833626E1,4.660021961E-1,-6.646065116E-1
1.696763057E1,1.938545227E1,-4.139583111E-1,-2.248056889E0
1.698709234E1,1.590509224E1,-1.613958836E0,-2.805584431E0
1.700655411E1,1.228834057E1,-6.412764788E-1,-1.894517303E0
1.702601588E1,8.289934158E0,4.187439680E-1,-6.556333899E-1
1.704547775E1,4.270590305E0,7.262216806E-1,3.553341627E-1
1.706493952E1,-2.518445849E-1,1.393819153E-1,2.865405083E-1
1.708440130E1,-4.687539577E0,-6.514459848E-1,-3.104687333E-1
1.710386307E1,-7.244868755E0,-6.831508875E-1,-2.416750938E-1
1.712332484E1,-6.434299946E0,-5.742774606E-1,-7.178467698E-3
1.714278661E1,-3.627519131E0,-2.913261652E-1,-7.956135273E-2
1.716224838E1,-6.113662124E-1,1.142572835E-1,-1.621137410E-1
1.718171015E1,1.264606714E0,3.415754437E-1,-2.578266263E-1
1.720117202E1,1.764706731E0,3.050848842E-1,-2.015953064E-1
1.722063380E1,2.082952023E0,4.588237405E-1,-7.357929349E-1
1.724009557E1,3.858426571E0,1.200000525E0,-2.451446772E0
1.725955734E1,8.465208054E0,3.141776085E0,-3.766302824E0
1.727901911E1,1.783669853E1,5.296513081E0,-1.127019525E0
1.729848088E1,3.913581085E1,2.757728100E0,5.513063431E0
1.731794265E1,5.433143234E1,-2.572284341E-1,-5.182255745E0
1.733740452E1,3.448715591E1,-4.995017350E-1,-6.706483841E0
1.735686630E1,2.256611252E1,4.618147612E-1,2.427518606E0
1.737632807E1,1.371865082E1,2.870190859E0,4.274777889E0
1.739578984E1,9.019146919E0,2.621935368E0,5.425725579E-1
1.741525161E1,7.061219692E0,1.460219979E0,-3.110669374E0
1.743471338E1,3.120240688E0,1.268195957E-1,-4.249652863E0
1.745417515E1,-2.113460541E0,-1.378864050E0,-3.321835995E0
1.747363692E1,-6.818946362E0,-1.954936147E0,-2.316252232E0
1.749309880E1,-7.946564198E0,-7.782655358E-1,-1.725225091E0
1.751256057E1,-4.961517811E0,5.282155871E-1,-5.443671346E-1
1.753202234E1,-9.625129104E-1,3.104687333E-1,6.197410822E-1
1.755148411E1,1.444666624E0,2.249253243E-1,1.141376376E0
1.757094588E1,2.425724030E0,5.868397355E-1,1.292722464E0
1.759040765E1,1.802393675E0,7.639086246E-1,4.546363056E-1
1.760986942E1,7.088736892E-1,9.146564603E-1,-1.271187067E0
1.762933119E1,1.415952802E0,9.158528447E-1,-2.882753134E0
1.764879296E1,4.482355118E0,1.594218135E0,-3.124428272E0
1.766825484E1,9.787242889E0,1.146760225E0,-1.890928149E0
1.768771661E1,2.031087685E1,-1.134796143E0,-1.199402332E0
1.770717838E1,4.037888336E1,4.552344978E-1,4.147958279E0
1.772664015E1,5.013681412E1,1.431506157E0,3.363710403E0
1.774610192E1,2.766282463E1,2.178066730E0,5.898307562E-1
1.776556369E1,2.078046799E1,3.858426511E-1,-2.790629387E0
1.778502546E1,1.776730728E1,-1.389033556E0,-4.381258488E0
1.780448734E1,1.420080376E1,-1.150349498E0,-2.696112871E0
1.782394911E1,9.800403595E0,5.982056609E-4,-1.260419369E0
1.784341088E1,5.873781204E0,1.091127157E0,-4.372883439E-1
1.786287265E1,1.137787223E0,1.071984529E0,-2.327020019E-1
1.788233442E1,-4.482953072E0,4.857429862E-1,-2.207378894E-1
1.790179619E1,-8.461020470E0,-1.136590764E-1,-6.562315822E-1
1.792125796E1,-7.669594765E0,2.985046208E-1,-7.052844763E-1
1.794071973E1,-4.764110088E0,9.690931439E-1,-2.039881349E-1
1.796018150E1,-1.484148264E0,9.320043921E-1,1.477568001E-1
1.797964328E1,8.105686903E-1,3.409772217E-1,1.519442350E-1
1.799910515E1,1.620539188E0,-5.306084156E-1,7.722834945E-1
1.801856692E1,1.897508383E0,-1.548156261E0,1.004985496E-1
1.803802869E1,3.123231649E0,-1.028913736E0,-2.165504456E0
1.805749046E1,9.147162437E0,1.953141451E0,-2.215155602E0
1.807695223E1,2.175614166E1,4.430311203E0,7.154539824E-1
1.809641400E1,4.338008118E1,1.722832322E0,-5.414359570E0
1.811587578E1,5.601897049E1,2.255235314E-1,-1.080957651E0
1.813533765E1,3.104747200E1,1.077966571E0,4.235296249E0
1.815479942E1,1.744427490E1,3.780659735E-1,6.909275651E-1
1.817426119E1,1.156152058E1,-4.707878530E-1,-2.140978098E0
1.819372296E1,8.167900085E0,-2.452643216E-2,-2.163111687E0
1.821318473E1,5.418546677E0,2.410768867E-1,-1.265205026E0
1.823264650E1,2.589034081E0,4.013960063E-1,-1.286142230E0
1.825210828E1,-9.930213690E-1,7.944171429E-1,-1.443470240E0
1.827157005E1,-4.852046013E0,1.235892892E0,-9.655039310E-1
1.829103182E1,-6.276373863E0,1.132403374E0,-1.285543919E0
1.831049359E1,-4.290929317E0,3.864408433E-1,-5.539384484E-1
1.832995536E1,-1.566102386E0,-2.656033039E-1,1.141974568E0
1.834941723E1,-1.088734269E-1,-2.548356056E-1,2.286940336E0
1.836887900E1,1.049252748E0,-2.243271172E-1,2.132603168E0
1.838834078E1,2.394617319E0,-1.579262912E-1,1.365105271E0
1.840780255E1,3.184846878E0,2.093719840E-1,-5.653043389E-1
1.842726432E1,2.983251572E0,3.439682424E-1,-2.792423964E0
1.844672609E1,3.476771355E0,1.381855011E-1,-3.610769272E0
1.846618786E1,6.808776855E0,-3.828516230E-2,-3.238685369E0
1.848564963E1,1.458545017E1,-4.875376225E-1,-3.423531055E0
1.850511140E1,3.131606674E1,7.710871100E-1,1.818545163E-1
1.852457317E1,5.504090118E1,2.692523718E0,2.813959360E0
1.854403505E1,3.894498444E1,1.031306505E0,-1.152742267E0
1.856349682E1,2.390788651E1,5.952146053E-1,7.417750359E-1
1.858295859E1,1.974078751E1,-1.616351724E0,-1.877169371E0
1.860242036E1,1.627059555E1,-2.866601467E0,-2.479562521E0
1.862188213E1,1.131505966E1,-1.676770449E0,-1.856830359E0
1.864134390E1,7.164111137E0,9.690931439E-2,-1.150349498E0
1.866080567E1,3.389433384E0,1.402792215E0,-9.146564603E-1
1.868026744E1,-8.554341197E-1,1.500299811E0,-1.618146300E0
1.869972921E1,-4.846662045E0,9.008977413E-1,-1.474576950E0
1.871919098E1,-6.929614544E0,6.215356588E-1,-3.936193287E-1
1.873865275E1,-5.585446358E0,1.166501045E-1,-2.392822653E-1
1.875811463E1,-2.820539713E0,4.366901144E-2,-7.896314859E-1
1.877757640E1,-4.695914388E-1,4.612165689E-1,-1.116251707E0
1.879703817E1,5.072783828E-1,6.185446382E-1,-1.055234790E0
1.881649994E1,1.001396298E0,2.763710022E-1,-6.795616150E-1
1.883596171E1,2.095514536E0,6.538388133E-1,-7.292127013E-1
1.885542348E1,3.992424488E0,1.459621787E0,-8.069794178E-1
1.887488525E1,6.931408882E0,1.730608940E0,-1.934597135E0
1.889434703E1,1.251865005E1,2.496910334E0,-2.705684185E0
1.891380880E1,2.654298401E1,2.190629244E0,3.181855917E0
1.893327067E1,5.686782455E1,-1.467398524E0,6.183053493E0
1.895273244E1,4.160879135E1,-3.384049416E0,-6.905087948E0
1.897219421E1,2.563371086E1,1.261017561E0,-6.520441532E0
1.899165598E1,1.763031769E1,4.652245522E0,5.338387489E0
1.901111775E1,1.174696445E1,4.151547432E0,4.202992916E0
1.903057952E1,8.124231339E0,9.834501147E-1,-1.257428288E0
1.905004130E1,5.657829285E0,-1.632503271E0,-5.051846981E0
1.906950307E1,7.872386575E-1,-1.506281853E0,-4.450650215E0
1.908896484E1,-5.991029739E0,5.383851007E-3,-1.482353687E0
1.910842661E1,-9.555737495E0,9.954141974E-1,-3.248256743E-1
1.912788838E1,-7.673782349E0,5.706881881E-1,-5.670989752E-1
1.914735025E1,-3.128615618E0,1.734796353E-2,-2.344966233E-1
1.916681203E1,8.464609981E-1,-5.371887088E-1,-1.776670814E-1
1.918627380E1,2.557329178E0,-3.188436031E-1,3.248256743E-1
1.920573557E1,3.162713289E0,4.947160780E-1,3.068794906E-1
1.922519734E1,1.597807288E0,1.311864972E0,1.794617064E-2
1.924465911E1,-2.069791555E-1,1.159920812E0,-8.733802438E-1
1.926412088E1,1.225125194E0,4.576273263E-1,-2.260020971E0
1.928358265E1,5.784050465E0,5.676971674E-1,-3.236890793E0
1.930304442E1,1.429651737E1,-5.144568533E-2,-2.659024239E0
1.932250619E1,3.462174988E1,1.614557028E0,1.281954765E0
1.934196796E1,5.948437500E1,3.034697294E0,1.089332461E0
1.936142973E1,3.592045593E1,1.381855130E0,-3.876372576E-1
1.938089161E1,2.033360863E1,8.961120844E-1,7.160521746E-1
1.940035338E1,1.582313824E1,-6.759724021E-1,-2.114656925E0
1.941981515E1,1.295115280E1,-1.491924882E0,-3.049652576E0
1.943927692E1,9.479764938E0,-8.596215248E-1,-2.422732830E0
1.945873869E1,6.371488571E0,2.590230405E-1,-1.931007862E0
1.947820046E1,2.876172781E0,1.010369420E0,-1.150947690E0
1.949766223E1,-2.523231506E0,1.140179992E0,-1.698904037E-1
1.951712400E1,-7.008577347E0,4.833501875E-1,3.918247223E-1
1.953658578E1,-6.567101955E0,2.763710022E-1,5.862415433E-1
1.955604755E1,-3.554538012E0,8.189435601E-1,7.465606928E-1
1.957550932E1,-1.358525038E0,6.693921089E-1,3.667000830E-1
1.959497109E1,-3.164508045E-1,-1.351944804E-1,-4.606183469E-1
1.961443286E1,3.373879790E-1,-5.688936114E-1,-2.243271172E-1
1.963389463E1,1.176670551E0,-8.793623447E-1,7.543373108E-1
1.965335650E1,2.363510609E0,-1.073779106E0,-6.173482537E-1
1.967281828E1,6.689733982E0,3.008974493E-1,-3.905684710E0
1.969228005E1,1.745504379E1,3.078964472E0,-2.492124796E0
1.971174182E1,4.119662857E1,4.271188259E0,4.339982033E0
1.973120359E1,5.486682510E1,2.370688915E0,-6.564110756E0
1.975066536E1,3.679264069E1,-1.849053741E0,-1.622333765E0
1.977012713E1,2.159701920E1,-9.290133715E-1,3.897907972E0
1.978958890E1,1.117567825E1,8.404789567E-1,2.453241348E0
1.980905067E1,6.647859573E0,8.673982024E-1,-1.739582062E0
1.982851244E1,5.459224701E0,2.955136001E-1,-3.970889091E0
1.984797421E1,3.531806231E0,6.269195080E-1,-3.262613773E0
1.986743609E1,5.647061467E-1,3.050848842E-1,-1.826920033E0
1.988689786E1,-3.314657450E0,-5.503492057E-2,-9.134600163E-1
1.990635963E1,-5.342574596E0,-4.031906128E-1,-5.575276613E-1
1.992582140E1,-4.037888050E0,-2.560320199E-1,-5.629115105E-1
1.994528317E1,-1.494915962E0,2.099701911E-1,5.850451589E-1
1.996474494E1,3.930211067E-1,3.254238665E-1,1.887338877E0
1.998420671E1,1.579262972E0,4.743770957E-1,2.134995937E0
2.000366848E1,1.393819213E0,7.124629617E-1,1.402792215E0
2.002313025E1,9.505487680E-1,1.199402332E0,-8.853443712E-2
2.004259202E1,1.876571178E0,1.931606054E0,-2.465803623E0
2.006205380E1,4.260420799E0,2.481955290E0,-4.464408875E0
2.008151557E1,8.194221497E0,2.090130568E0,-4.030709743E0
2.010097734E1,1.516271877E1,-2.177468538E-1,-2.384447813E0
2.012043911E1,2.900579643E1,-1.175474167E0,9.499505758E-1
2.013990088E1,4.988317490E1,4.648058116E-1,3.916452408E0
2.015936265E1,3.580021667E1,3.235096216E0,1.400997639E0
2.017882452E1,2.361895370E1,3.106482029E0,9.846464992E-1
2.019828630E1,2.012722778E1,-6.616154313E-1,-3.217748165E0
2.021774807E1,1.788216209E1,-3.416950703E0,-4.808975220E0
2.023720984E1,1.343869019E1,-1.264606714E0,-2.597409010E0
2.025667161E1,8.765507698E0,1.707278967E0,-6.873382926E-1
2.027613338E1,4.320839405E0,2.601596355E0,2.979064286E-1
2.029559515E1,8.913264424E-2,1.307677627E0,-9.212367237E-2
2.031505692E1,-3.886542082E0,-2.081755698E-1,-4.408775866E-1
2.033451869E1,-6.467201233E0,-4.432703853E-1,1.884347796E-1
2.035398046E1,-5.842674732E0,-6.687939167E-1,6.370890141E-1
2.037344223E1,-3.440280676E0,-6.957131624E-1,3.960121572E-1
2.039290400E1,-7.806583643E-1,-1.926222295E-1,1.357926875E-1
2.041236578E1,7.334001660E-1,5.084748194E-2,-3.882354796E-1
2.043182755E1,1.107278705E0,-2.189432681E-1,-9.170492887E-1
2.045128932E1,1.517647743E0,-4.486542344E-1,-1.435095429E0
2.047075109E1,3.282354355E0,-1.674975902E-1,-2.104487419E0
2.049021286E1,7.042077065E0,9.786644578E-1,-2.816352367E0
2.050967463E1,1.302712440E1,2.922234535E0,-1.284945726E0
2.052913650E1,2.474477768E1,2.719442844E0,2.900100946E0
2.054859828E1,4.741258240E1,1.196411327E-1,4.019941986E-1
2.056806005E1,4.636991119E1,-1.926222205E0,-1.066600704E1
2.058752182E1,2.793022156E1,-3.164508045E-1,-3.347558975E0
2.060698359E1,1.803769493E1,3.376272678E0,2.873181820E0
2.062644536E1,1.094237804E1,3.658027649E0,1.491924882E0
2.064590713E1,6.756134510E0,2.196012974E0,-1.822732687E0
2.066536890E1,4.833501816E0,8.195417523E-1,-3.485146284E0
2.068483067E1,1.249053478E0,-4.899304509E-1,-3.340380430E0
2.070429244E1,-3.787240028E0,-1.154536963E0,-2.013560295E0
2.072375421E1,-7.254439831E0,-9.230313301E-1,-1.123430252E0
2.074321598E1,-6.595217228E0,-1.423729509E-1,-5.700899959E-1
2.076267775E1,-2.955136061E0,3.649054468E-1,7.447660565E-1
2.078213952E1,4.169493318E-1,-3.415754437E-1,1.363908887E0
2.080160130E1,1.968096614E0,-7.824530005E-1,1.339382529E0
2.082106307E1,2.467598438E0,-3.391826153E-1,7.268198729E-1
2.084052484E1,1.698305845E0,9.044869542E-1,-3.667000830E-1
2.085998671E1,1.581057549E0,2.213361025E0,-1.564307809E0
2.087944848E1,3.464807272E0,3.317648649E0,-3.151945591E0
2.089891025E1,7.652246952E0,3.000001431E0,-4.015754700E0
2.091837202E1,1.747478294E1,6.969096065E-1,-2.431705952E0
2.093783380E1,4.622155762E1,-2.583052158E0,4.075575352E0
2.095729557E1,5.859962845E1,-1.811366796E0,-5.916253924E-1
2.097675734E1,2.672124863E1,2.971885681E0,6.574280262E-1
2.099621911E1,1.546182156E1,3.613162279E0,6.610172391E-1
2.101568088E1,1.210349560E1,1.838884234E0,-5.557330847E-1
2.103514265E1,8.851051331E0,5.898307562E-1,-9.176474810E-1
2.105460442E1,6.251847267E0,4.067798555E-1,-1.678565025E0
2.107406619E1,3.107678413E0,2.835494876E-1,-2.772683144E0
2.109352796E1,-1.034895778E0,-2.955136001E-1,-2.227717876E0
2.111298973E1,-4.277768612E0,-7.477570772E-1,-1.555334687E0
2.113245150E1,-5.093122959E0,-6.000002623E-1,-1.046261668E0
2.115191328E1,-3.796811342E0,5.072783828E-1,-1.908276081E-1
2.117137505E1,-2.103889227E0,1.270588875E0,2.261217386E-1
2.119083682E1,-8.458628058E-1,1.068395257E0,1.208375469E-1
2.121029859E1,9.332008660E-2,4.905286431E-2,5.437689424E-1
2.122976036E1,4.749752879E-1,-1.399801254E0,1.711466432E0
2.124922213E1,1.438684583E0,-2.762513638E0,8.392825127E-1
2.126868400E1,4.033102512E0,-1.660618901E0,-2.249253273E0
2.128814578E1,8.237292290E0,1.223330617E0,-5.571089268E0
2.130760755E1,1.801257133E1,2.931805849E0,-2.413759947E0
2.132706932E1,4.683651352E1,2.483151674E0,4.545764923E0
2.134653109E1,5.737151337E1,1.660020709E0,-3.154338360E0
2.136599286E1,2.939941597E1,4.785645306E-1,-1.990828395E0
2.138545463E1,2.077807617E1,6.436693072E-1,2.550748825E0
2.140491640E1,1.538584995E1,2.697907388E-1,2.603989124E0
2.142437817E1,1.104526901E1,1.686939895E-1,-2.925225794E-1
2.144383994E1,8.038089752E0,7.106683254E-1,-2.257030010E0
2.146330171E1,4.922634602E0,7.788637877E-1,-2.936591625E0
2.148276348E1,8.811569214E-1,8.554340899E-2,-2.752344131E0
2.150222525E1,-4.159324169E0,-5.084748268E-1,-1.518245935E0
2.152168703E1,-7.804191113E0,-4.989035130E-1,-7.447660565E-1
2.154114880E1,-6.943971157E0,-6.939185411E-2,-1.295115232E0
2.156061057E1,-3.276970625E0,2.075773627E-1,-1.956132501E-1
2.158007234E1,3.290131316E-2,-5.347958803E-1,1.071386337E0
2.159953421E1,2.342573404E0,-8.925228715E-1,1.624128342E0
2.161899598E1,2.724228621E0,-5.569294691E-1,1.951945066E0
2.163845775E1,1.240678549E0,1.088734269E-1,1.409372568E0
2.165791952E1,1.483550072E-1,9.098708034E-1,-4.779663086E-1
2.167738130E1,1.079162955E0,1.681556106E0,-2.926422119E0
2.169684307E1,5.362315655E0,2.297109842E0,-4.555934429E0
2.171630484E1,1.276271820E1,1.329213023E0,-4.577469826E0
2.173576661E1,2.505644226E1,1.543370634E-1,-1.610967875E0
2.175522838E1,4.562036133E1,1.664806366E0,5.550750256E0
2.177469015E1,5.081697083E1,-1.229312658E0,4.226921082E0
2.179415192E1,2.714956474E1,2.673979402E-1,2.045265198E0
2.181361369E1,2.091805649E1,-1.114457130E0,-2.634497643E0
2.183307546E1,1.672762489E1,-2.314457655E0,-8.785248756E0
2.185253723E1,1.239900875E1,-6.598208547E-1,-4.928018093E0
2.187199900E1,7.986045361E0,2.319243431E0,-3.080759048E-1
2.189146078E1,4.031906128E0,3.457628727E0,1.030708313E0
2.191092255E1,-1.127617717E0,1.982453585E0,1.262213886E-1
2.193038432E1,-7.135995388E0,-8.733802438E-1,-1.459621787E-1
2.194984609E1,-9.588638306E0,-2.667398930E0,2.632104978E-2
2.196930786E1,-7.534998417E0,-1.968694806E0,2.931207791E-2
2.198876963E1,-3.689732552E0,-9.930214286E-2,-3.762713671E-1
2.200823140E1,-2.321037948E-1,1.240678549E0,-1.274776220E0
2.202769317E1,2.102094650E0,1.319043517E0,-1.555334687E0
2.204715494E1,3.288336515E0,7.992027402E-1,-1.117448211E0
2.206661671E1,3.373281717E0,5.072783828E-1,-5.126622319E-1
2.208607848E1,4.280161381E0,3.954139352E-1,-8.344969153E-1
2.210554025E1,7.308278561E0,1.383649707E0,-2.428116798E0
2.212500213E1,1.721037674E1,3.370290756E0,9.290133715E-1
2.214446390E1,3.847838211E1,1.957927108E0,5.496313572E0
2.216392567E1,5.686483002E1,-1.490130305E0,-8.514261246E0
2.218338744E1,3.612205124E1,-6.675975323E-1,-2.385046005E0
2.220284921E1,1.952363777E1,2.429911375E0,4.100699902E0
2.222231098E1,1.263769245E1,2.058425665E0,1.450050473E0
2.224177275E1,8.577073097E0,1.494915962E0,-2.977269650E0
2.226123453E1,6.239284992E0,1.599003673E0,-3.805784464E0
2.228069630E1,3.005983353E0,7.016952634E-1,-2.413759947E0
2.230015807E1,-1.325025558E0,-2.793620527E-1,-1.639681697E0
2.231961984E1,-5.734399319E0,-6.759724021E-2,-7.441678643E-1
2.233908161E1,-6.979265213E0,-1.106680483E-1,1.393819153E-1
2.235854338E1,-5.345565796E0,-1.286142230E0,1.237089276E0
2.237800515E1,-1.623530149E0,-2.532802820E0,1.593619823E0
2.239746692E1,1.160519004E0,-1.534397483E0,1.031306505E0
2.241692869E1,2.280958176E0,8.003991842E-1,-2.153540403E-1
2.243639046E1,2.352742910E0,2.791825771E0,-1.395015597E0
2.245585223E1,2.088934183E0,3.145963669E0,-1.764706731E0
2.247531400E1,3.024527788E0,1.657029629E0,-2.423331022E0
2.249477578E1,6.696912289E0,6.568298340E-1,-2.935993433E0
2.251423755E1,1.324068451E1,2.165504545E-1,-2.720041037E0
2.253369932E1,2.619602394E1,1.053440213E0,2.626122832E-1
2.255316109E1,4.719962311E1,9.858429432E-1,5.233103275E0
2.257262296E1,3.969214249E1,1.585244983E-1,1.603789330E0
2.259208463E1,2.287717819E1,1.887937069E0,-4.959124923E-1
2.261154650E1,1.777508354E1,1.658226132E0,-3.840480328E0
2.263100828E1,1.443051529E1,8.249256015E-1,-4.764110088E0
2.265047005E1,1.072163963E1,7.477570772E-1,-3.728615999E0
2.266993182E1,6.829115868E0,8.009973764E-1,-1.981257200E0
2.268939359E1,3.312264681E0,5.108676553E-1,-1.710868180E-1
2.270885536E1,-9.852447510E-1,1.136590727E-2,1.199402332E0
2.272831713E1,-4.936393261E0,-7.304090858E-1,9.008977413E-1
2.274777890E1,-6.262016773E0,-1.256830096E0,-2.775674164E-1
2.276724067E1,-5.255236626E0,-2.793620527E-1,-3.672982752E-1
2.278670244E1,-2.815155745E0,9.379864931E-1,1.238285750E-1
2.280616421E1,-3.684946895E-1,1.223928809E0,2.751746178E-1
2.282562598E1,9.385846853E-1,2.697907388E-1,2.165504545E-1
2.284508775E1,1.267597795E0,-1.235294700E0,2.931207791E-2
2.286454952E1,1.826920033E0,-2.149353027E0,-1.061815023E0
2.288401130E1,3.798007727E0,-1.224527001E0,-3.196810961E0
2.290347307E1,8.685946465E0,1.783251047E0,-4.683950424E0
2.292293484E1,2.106760788E1,5.627918720E0,-4.354937077E-1
2.294239661E1,4.546961212E1,4.880760193E0,4.719244480E0
2.296185838E1,5.474658585E1,-1.319641709E0,-4.901697159E0
2.298132015E1,3.249094391E1,-2.444866419E0,-9.266205430E-1
2.300078192E1,2.011107635E1,-9.930214286E-2,2.723032236E0
2.302024369E1,1.374317646E1,1.578066587E0,3.266202807E-1
2.303970546E1,1.128873920E1,2.323430777E0,-2.785245657E0
2.305916723E1,9.188439369E0,2.138585329E0,-3.658625841E0
2.307862900E1,5.880959988E0,6.448656917E-1,-2.980858803E0
2.309809078E1,8.578268886E-1,-1.122233868E0,-1.543370605E0
2.311755255E1,-6.077769279E0,-1.889731646E0,1.465603858E-1
2.313701432E1,-9.203393936E0,-1.625923038E0,-3.738785386E-1
2.315647609E1,-6.458228111E0,-3.732803464E-1,-1.019342422E0
2.317593786E1,-1.801795483E0,3.409772366E-2,5.982056726E-3
2.319539963E1,1.386640668E0,-1.597209126E-1,1.135394335E0
2.321486140E1,3.131606579E0,2.811566554E-2,1.686341763E0
2.323432317E1,3.163909674E0,7.100701332E-1,1.456032634E0
2.325378494E1,2.057229280E0,1.261615753E0,7.106683254E-1
2.327324671E1,3.050848842E-1,1.012163997E0,-4.564309120E-1
2.329270848E1,7.178468257E-2,2.488535494E-1,-2.349751949E0
2.331217025E1,3.763910055E0,3.637090325E-1,-3.818944931E0
2.333163202E1,1.003430176E1,1.103689432E0,-3.242274761E0
2.335109380E1,2.082353973E1,1.923231244E0,-3.083750248E0
2.337055557E1,3.743870163E1,3.754936934E0,5.234897614E0
2.339001734E1,4.996273422E1,-7.776673418E-3,5.572884083E0
2.340947921E1,3.360599899E1,-1.828714728E0,-1.751546144E0
2.342894098E1,2.204028893E1,5.862415433E-1,-2.312663078E0
2.344840275E1,1.645663834E1,1.988435626E0,-5.014159679E0
2.346786453E1,1.292961693E1,1.464407444E0,-3.028715372E0
2.348732630E1,1.026939678E1,-2.883351147E-1,-1.235892892E0
2.350678807E1,6.617351055E0,-8.105686903E-1,-1.256231871E-2
2.352624984E1,1.911267042E0,-4.773681164E-1,4.139583111E-1
2.354571161E1,-3.445066452E0,-4.474578202E-1,-6.000002623E-1
2.356517338E1,-7.379465103E0,-3.936193287E-1,-1.369890928E0
2.358463515E1,-7.292127132E0,3.451646566E-1,-8.297112584E-1
2.360409692E1,-4.856831551E0,9.403793216E-1,2.518445849E-1
2.362355869E1,-2.123630047E0,3.684946895E-1,7.334001660E-1
2.364302046E1,-1.148554832E-1,-8.303094506E-1,2.667997181E-1
2.366248223E1,1.092323542E0,-1.525424480E0,-2.656033039E-1
2.368194400E1,1.951945066E0,-1.151545882E0,-1.992024779E-1
2.370140578E1,3.623331785E0,2.470589429E-1,-3.110669553E-1
2.372086755E1,5.765506268E0,2.267797709E0,-1.004985452E0
2.374032932E1,1.019462109E1,4.482953072E0,-2.927020311E0
2.375979109E1,2.340479660E1,5.816353798E0,-1.152742267E0
2.377925286E1,5.488177872E1,2.236092806E0,2.219342947E0
2.379871463E1,5.174239731E1,-6.849454641E-1,-6.147161484E0
2.381817640E1,2.769512749E1,-5.700899959E-1,-3.845864296E0
2.383763817E1,1.783669853E1,-6.454638839E-1,-3.487538993E-1
2.385709994E1,1.131505966E1,7.836494446E-1,5.144568682E-1
2.387656171E1,6.880561352E0,1.843669891E0,-3.164508045E-1
2.389602348E1,4.367499352E0,1.911865234E0,-1.776072621E0
2.391548525E1,6.861419082E-1,7.848458290E-1,-2.465205431E0
2.393494703E1,-4.561916351E0,-5.682953596E-1,-2.386242390E0
2.395440880E1,-8.202595711E0,-1.103091240E0,-2.423929453E0
2.397387057E1,-7.795217991E0,-9.565308690E-1,-1.611566067E0
2.399333234E1,-3.785445452E0,-6.454638839E-1,5.778666735E-1
2.401279411E1,8.111668825E-1,-5.904290080E-1,1.753939033E0
2.403225588E1,3.299702406E0,-1.914258152E-1,1.600200176E0
2.405171765E1,3.775874138E0,7.477570772E-1,9.571290761E-2
2.407117942E1,2.050648928E0,2.139781713E0,-2.630310297E0
2.409064119E1,5.862415433E-1,2.926422119E0,-4.262813568E0
2.411010296E1,2.149951220E0,3.324228764E0,-3.090928555E0
2.412956473E1,6.066403389E0,3.445066452E0,-1.511067510E0
2.414902650E1,1.358764362E1,1.980060697E0,-2.176272154E0
2.416848828E1,3.531746292E1,5.048855543E-1,1.439880967E0
2.418795005E1,6.278168488E1,-7.420741081E0,-1.135992527E0
2.420741182E1,3.007119942E1,-4.066602230E0,-8.297112584E-1
2.422687359E1,1.851506424E1,1.181456208E0,-1.296311617E0
2.424633536E1,1.635255051E1,2.298306227E0,-3.422334671E0
2.426579713E1,1.273639679E1,2.025524378E0,-4.063611031E0
2.428525890E1,8.040482521E0,1.353739381E0,-3.723830223E0
2.430472067E1,4.916652203E0,1.042672515E0,-2.164308071E0
2.432418244E1,1.147358418E0,4.755735099E-1,4.749752879E-1
2.434364421E1,-3.990629911E0,-6.161518097E-1,1.929811478E0
2.436310598E1,-7.380661488E0,-2.189432621E0,6.987041831E-1
2.438256775E1,-6.965506554E0,-1.893320918E0,-9.960124493E-1
2.440202953E1,-4.073182583E0,-1.256231871E-2,-1.054636598E0
2.442149130E1,-7.405785918E-1,1.127617717E0,-2.458625287E-1
2.444095307E1,1.262812138E0,1.159920812E0,4.223332107E-1
2.446041484E1,1.936391711E0,-5.204389244E-2,8.991031051E-1
2.447987661E1,2.687139750E0,-1.415354609E0,3.062812984E-1
2.449933838E1,5.023132801E0,-1.286740422E0,-2.297708035E0
2.451880015E1,8.721838951E0,1.343569875E0,-4.202394962E0
2.453826192E1,1.477089405E1,4.028316975E0,-3.177668571E0
2.455772369E1,2.775614357E1,4.247260094E0,1.808973908E0
2.457718546E1,4.716313171E1,6.777670383E-1,1.058225870E0
2.459664723E1,4.119244003E1,-2.733201742E0,-4.192823410E0
2.461610900E1,2.655434990E1,3.930211067E-1,-1.582852125E0
2.463557088E1,1.824228096E1,2.538186550E0,-4.366901219E-1
2.465503265E1,1.282672596E1,2.459223509E0,-1.861017823E0
2.467449442E1,9.050851822E0,2.151147604E0,-2.413759947E0
2.469395619E1,6.710670948E0,1.535593987E0,-2.011167526E0
2.471341796E1,3.715455294E0,2.805584669E-1,-1.725823283E0
2.473287973E1,-7.118647099E-1,-1.146760225E0,-5.910272002E-1
2.475234150E1,-5.647061348E0,-1.822134495E0,1.573280841E-1
2.477180328E1,-7.392625332E0,-1.362114310E0,-6.646065116E-1
2.479126505E1,-5.554339409E0,-1.028913707E-1,-1.013958573E0
2.481072682E1,-1.823330879E0,5.964110494E-1,-2.608176768E-1
2.483018859E1,6.197410822E-1,6.478567123E-1,5.838487148E-1
2.484965036E1,1.771286964E0,5.988038778E-1,1.085145116E0
2.486911213E1,1.849053741E0,7.579265833E-1,6.592226624E-1
2.488857390E1,1.636690736E0,1.019342422E0,-3.864408433E-1
2.490803567E1,1.947757602E0,1.144367456E0,-1.726421595E0
2.492749744E1,3.384049416E0,1.442872047E0,-2.439482689E0
2.494695921E1,6.594619274E0,1.068395257E0,-3.532404423E0
2.496642088E1,1.263888931E1,-5.916253924E-1,-3.786641836E0
2.498588275E1,2.702992249E1,-1.013360381E0,-1.701895118E0
2.500534452E1,5.073442078E1,4.089931965E0,5.881557941E0
2.502480630E1,4.683830643E1,5.454439163E0,-6.999006122E-2
2.504426807E1,2.658126831E1,2.562114954E0,-6.604190469E-1
2.506372984E1,1.902892113E1,-2.514258385E0,-3.482155085E0
2.508319161E1,1.701476288E1,-6.024528980E0,-2.582453728E0
2.510265338E1,1.364088345E1,-3.984049797E0,-2.045265198E0
2.512211515E1,9.278169632E0,4.414757788E-1,-1.756929994E0
2.514157692E1,4.976472855E0,3.352942705E0,-1.443470240E0
2.516103869E1,-8.554340899E-2,3.215355396E0,-1.571486235E0
2.518050046E1,-5.476572990E0,1.156331539E0,-1.176670551E0
2.519996223E1,-9.005388260E0,-1.353141189E0,3.954139352E-1
2.521942400E1,-8.061419487E0,-2.418545485E0,6.945167780E-1
2.523888578E1,-4.334598064E0,-1.325623751E0,-1.728814393E-1
2.525834755E1,-6.681957245E-1,8.045865893E-1,-4.588237405E-1
2.527780932E1,1.571486235E0,2.389831543E0,8.374879509E-2
2.529727109E1,1.701895118E0,2.127219439E0,-5.742774159E-2
2.531673286E1,1.709073544E0,1.320239902E0,-2.925225794E-1
2.533619463E1,2.328814745E0,4.654040039E-1,-6.999006271E-1
2.535565640E1,4.508078098E0,4.755735099E-1,-2.745764017E0
2.537511817E1,1.090409279E1,2.164906263E0,-4.070789337E0
2.539457994E1,2.941795921E1,2.729014158E0,3.773481369E0
2.541404171E1,5.379902649E1,-1.052842021E0,-1.048654556E0
2.543350348E1,4.547739029E1,-1.039681435E0,-6.461817741E0
2.545296525E1,2.652264404E1,2.874976397E0,1.390828133E0
2.547242703E1,1.657627869E1,4.223930359E0,3.719642878E0
2.549188880E1,1.097408295E1,1.373480201E0,-8.937192559E-1
2.551135057E1,7.751548767E0,7.788637877E-1,-3.348755360E0
2.553081234E1,5.620141983E0,7.902296782E-1,-3.226721287E0
2.555027411E1,2.672782898E0,2.590230405E-1,-2.361716032E0
2.556973588E1,-1.792224169E0,-7.692924738E-1,-1.420140266E0
2.558919765E1,-6.524629116E0,-1.239482164E0,-1.120439172E0
2.560865942E1,-6.839883327E0,-7.094719410E-1,-1.554138303E0
2.562812119E1,-3.891327858E0,6.269195080E-1,-3.583251834E-1
2.564758296E1,-8.614161611E-2,6.735795736E-1,1.058225870E0
2.566704473E1,2.286940336E0,6.843472719E-1,1.820339799E0
2.568650650E1,3.082553864E0,8.817551732E-1,1.180858016E0
2.570596828E1,1.939980984E0,1.256231904E0,-5.246263742E-1
2.572543005E1,3.427718580E-1,1.831107497E0,-1.816750646E0
2.574489182E1,2.440679073E-1,9.092726111E-1,-2.005783558E0
2.576435359E1,2.957528830E0,-7.932206988E-1,-1.762313843E0
2.578381536E1,7.797610760E0,-1.835893154E0,-2.060220242E0
2.580327713E1,2.015414619E1,-2.051845312E0,-2.458625317E0
2.582273890E1,5.735954666E1,2.147558212E0,-1.637887120E0
2.584220067E1,4.746762085E1,4.540380955E0,-1.162911773E0
2.586166244E1,2.421476746E1,4.223332107E-1,-2.392822653E-1
2.588112421E1,1.882553291E1,3.469592705E-2,-1.176072359E0
2.590058598E1,1.543729496E1,-5.473581553E-1,-1.103689432E0
2.592004775E1,1.113320541E1,-8.141579032E-1,-1.565504193E0
2.593950953E1,6.610172749E0,-4.899304509E-1,-2.598605394E0
2.595897130E1,3.125624657E0,1.064806059E-1,-2.752344131E0
2.597843307E1,-9.667003751E-1,3.744767308E-1,-1.493719578E0
2.599789484E1,-5.304289818E0,-2.141576260E-1,6.011967063E-1
2.601735661E1,-6.771090031E0,-8.416753411E-1,1.494915962E0
2.603681828E1,-4.524827480E0,1.016949583E-2,7.028916478E-1
2.605628005E1,-2.059023857E0,6.604190469E-1,1.501496136E-1
2.607574182E1,-7.262216806E-1,5.018945336E-1,1.782652885E-1
2.609520359E1,-2.189432681E-1,-4.289134443E-1,-3.110669367E-2
2.611466536E1,4.983053207E-1,-1.208375454E0,-1.908276081E-1
2.613412713E1,2.050648928E0,-1.364507079E0,-1.302293777E0
2.615358890E1,4.101896286E0,-7.908278704E-1,-3.941577196E0
2.617305067E1,9.148957253E0,1.757528186E0,-5.826523304E0
2.619251244E1,1.990529251E1,4.816154003E0,-1.179661512E0
2.621197421E1,4.193541336E1,4.031308174E0,3.186043262E0
2.623143598E1,4.963790894E1,-5.862415433E-1,-3.175275564E0
2.625089775E1,3.267818069E1,-1.711466432E0,-2.204986095E0
2.627035952E1,2.373620224E1,5.670989752E-1,1.153340459E0
2.628982130E1,1.646561050E1,2.958127022E0,-7.836493850E-2
2.630928307E1,1.195932770E1,2.829512835E0,-2.777468920E0
2.632874484E1,9.218349457E0,1.494317770E0,-3.449253798E0
2.634820661E1,5.708676815E0,4.187439755E-2,-2.652443886E0
2.636766838E1,1.335195065E0,-1.351944804E0,-1.663011789E0
2.638713015E1,-4.028914928E0,-2.201995134E0,-7.794619799E-1
2.640659192E1,-7.663014412E0,-1.550549030E0,-4.295116663E-1
2.642605369E1,-6.761518478E0,6.245267391E-1,5.288137794E-1
2.644551546E1,-3.297309637E0,6.490531564E-1,1.436890006E0
2.646497723E1,-7.118647546E-2,-6.999006271E-1,1.153938770E0
2.648443900E1,2.332403898E0,-1.177268744E0,6.107679605E-1
2.650390078E1,3.515654564E0,-5.682953820E-2,1.848455518E-1
2.652336255E1,3.084946632E0,1.359123230E0,-1.680957973E-1
2.654282432E1,1.460219979E0,1.975873351E0,-5.503492355E-1
2.656228609E1,3.637090325E-1,2.079961061E0,-1.649253011E0
2.658174786E1,2.156531334E0,1.533201098E0,-2.853441000E0
2.660120963E1,5.621936798E0,1.758724600E-1,-3.932604074E0
2.662067140E1,1.216391373E1,-1.335793257E0,-6.750751019E0
2.664013317E1,2.720519638E1,1.419542074E0,-3.584448338E0
2.665959494E1,5.048497009E1,3.990629911E0,5.473581791E0
2.667905671E1,4.635974121E1,3.125026464E0,4.384847581E-1
2.669851848E1,2.639582443E1,-1.256231871E-2,4.486542568E-2
2.671798025E1,2.022892189E1,-1.868196249E0,-1.438684583E0
2.673744202E1,1.756810379E1,-2.246860504E0,-1.664806366E0
2.675690380E1,1.269751358E1,-1.021137118E0,-2.146361828E0
2.677636557E1,7.485945702E0,1.027717352E0,-2.800798893E0
2.679582734E1,3.775275946E0,2.539382935E0,-1.983051777E0
2.681528911E1,5.862415582E-2,2.245065928E0,-9.146564603E-1
2.683475088E1,-3.795614958E0,6.699903309E-2,-2.572284341E-1
2.685421265E1,-5.906682491E0,-1.907079697E0,-2.847459018E-1
2.687367442E1,-4.633700848E0,-2.079362869E0,-8.937192559E-1
2.689313619E1,-1.835294962E0,-9.834501147E-1,-6.915257573E-1
2.691259796E1,4.827519655E-1,-1.734796353E-2,-3.128615618E-1
2.693205973E1,1.595414519E0,5.976074338E-1,4.953143001E-1
2.695152150E1,1.432702541E0,5.222335458E-1,9.296116233E-1
2.697098317E1,5.425725579E-1,3.996013701E-1,2.458625287E-1
2.699044505E1,5.982056633E-2,5.437689424E-1,-6.251249313E-1
2.700990671E1,3.738785386E-1,3.762713671E-1,-1.109671474E0
2.702936848E1,2.405983210E0,7.357929349E-1,-2.758326292E0
2.704883025E1,6.615556240E0,2.428714991E0,-3.567100286E0
2.706829202E1,1.693161392E1,3.305684566E0,-2.597409010E0
2.708775380E1,4.473621368E1,3.014956474E0,-2.931207716E-1
2.710721557E1,5.478965759E1,2.750549555E0,-4.403990269E0
2.712667734E1,3.265245819E1,-4.289134443E-1,-4.187439442E0
2.714613911E1,2.495833588E1,-2.679961324E-1,2.793620527E-1
2.716560088E1,2.130270195E1,2.910868645E0,4.402793646E-1
2.718506265E1,1.521595955E1,3.682554007E0,-2.058425665E0
2.720452442E1,1.017488003E1,2.507678032E0,-3.732803345E0
2.722398619E1,5.645864964E0,4.929214716E-1,-3.955335855E0
2.724344796E1,1.031306505E0,-1.100698471E0,-3.036491871E0
2.726290973E1,-3.126222849E0,-1.524826288E0,-1.753340840E0
2.728237150E1,-6.104688644E0,-5.006981492E-1,-9.523434043E-1
2.730183328E1,-6.510272026E0,5.521438122E-1,-7.232306600E-1
2.732129505E1,-4.259224415E0,-4.007977992E-2,-1.812563092E-1
2.734075682E1,-1.072582722E0,-9.170492887E-1,5.581258535E-1
2.736021859E1,1.234098315E0,-1.215553880E0,9.619147182E-1
2.737968036E1,2.505883455E0,-3.726821244E-1,7.495517135E-1
2.739914213E1,2.390429735E0,1.188036442E0,1.429711580E-1
2.741860390E1,1.243669510E0,2.361716032E0,-7.112665176E-1
2.743806567E1,-8.315058798E-2,2.734996319E0,-1.679761529E0
2.745752744E1,-1.788634956E-1,1.700698733E0,-2.732603550E0
2.747698921E1,1.865205288E0,7.537391037E-2,-3.553341627E0
2.749645098E1,6.119643688E0,-1.592423439E0,-3.737588882E0
2.751591275E1,1.510409451E1,-1.746760488E0,-4.444069862E0
2.753537452E1,4.381198502E1,3.198605776E0,3.360719442E0
2.755483630E1,5.594598770E1,4.540380955E0,4.366901398E0
2.757429807E1,3.133939552E1,6.340979934E-1,-1.951346874E0
2.759375984E1,2.278505516E1,7.292127013E-1,-2.863610506E0
2.761322161E1,2.118784714E1,8.201399446E-1,-1.777269006E0
2.763268328E1,1.685324860E1,-1.159322619E0,-1.668993831E0
2.765214505E1,1.114636612E1,-1.591825247E0,-3.906881094E0
2.767160682E1,6.720840454E0,1.196411322E-3,-4.309473515E0
2.769106859E1,2.757728100E0,2.175673962E0,-1.569691658E0
2.771053036E1,-1.240080357E0,2.206182480E0,1.054636598E0
2.772999213E1,-3.908675671E0,-5.682953820E-2,1.611566067E0
2.774945390E1,-5.325825214E0,-1.892722726E0,7.525427341E-1
2.776891567E1,-5.248058319E0,-2.163111687E0,-3.337987661E-1
2.778837744E1,-3.159124136E0,-1.218544960E0,-9.020941257E-1
2.780783921E1,-3.846462369E-1,6.783652306E-1,-1.285543919E0
2.782730098E1,1.407577872E0,2.186441660E0,-8.554341197E-1
2.784676275E1,1.350150228E0,1.791625977E0,0.000000000E0
2.786622453E1,4.785645306E-1,2.823530734E-1,3.762713671E-1
2.788568630E1,-1.064806059E-1,-9.463613629E-1,2.793620527E-1
2.790514807E1,6.508477330E-1,-1.210170031E0,-7.339983582E-1
2.792460984E1,4.549354076E0,1.064806059E-1,-2.407179594E0
2.794407161E1,1.367139244E1,4.784449100E0,-3.739383698E0
2.796353338E1,2.953819847E1,6.138786316E0,-4.487739086E0
2.798299515E1,5.545246887E1,2.503490686E0,-2.658426046E0
2.800245692E1,4.271966171E1,-9.361918569E-1,-2.656033039E0
2.802191869E1,2.528615379E1,-4.438686073E-1,-3.661018610E-1
2.804138046E1,1.949971008E1,2.158924341E0,-7.447660565E-1
2.806084223E1,1.763809395E1,2.587837696E0,-2.443071842E0
2.808030400E1,1.597209072E1,2.563909531E0,-3.198605776E0
2.809976578E1,1.142213917E1,2.021337032E0,-2.813959360E0
2.811922744E1,5.374877930E0,6.041877270E-1,-2.117049932E0
2.813868921E1,-2.650051117E-1,-1.098903775E0,-9.385846853E-1
2.815815098E1,-4.847858906E0,-1.975275040E0,-1.603191197E-1
2.817761275E1,-7.107879639E0,-1.147358418E0,-6.029912829E-1
2.819707452E1,-6.089135647E0,5.048855543E-1,-8.093722463E-1
2.821653630E1,-3.013161898E0,6.837490797E-1,-4.396811724E-1
2.823599807E1,1.232303679E-1,-1.872383654E-1,9.511470050E-2
2.825545984E1,1.987239242E0,-5.886343718E-1,5.222335458E-1
2.827492161E1,2.787040234E0,8.554340899E-2,5.347958803E-1
2.829438338E1,2.082952023E0,8.189435601E-1,1.794616925E-3
2.831384515E1,5.958128572E-1,1.159920812E0,-6.107679605E-1
2.833330692E1,-3.182454109E-1,1.116850019E0,-1.067198873E0
2.835276869E1,-4.187439568E-3,6.041877270E-1,-1.436291814E0
2.837223046E1,2.039283037E0,1.974078715E-1,-2.477767944E0
2.839169223E1,5.573482037E0,-6.460621208E-2,-3.422932863E0
2.841115400E1,1.211486149E1,-1.555334684E-2,-4.628317356E0
2.843061578E1,2.849373245E1,2.771486759E0,-1.027119160E0
2.845007755E1,5.028875732E1,4.391427994E0,5.186442852E0
2.846953932E1,4.072703934E1,3.834498227E-1,2.432902336E0
2.848900098E1,2.700001335E1,1.956132501E-1,-1.740778536E-1
2.850846275E1,2.518565559E1,1.694716692E0,-2.955136001E-1
2.852792453E1,2.343231392E1,-4.845465720E-2,-1.494317770E0
2.854738630E1,1.711526299E1,-1.070788145E0,-2.870190859E0
2.856684807E1,1.026401234E1,-1.375873014E-2,-2.831905603E0
2.858630984E1,5.136193752E0,1.101296663E0,-1.794616938E0
2.860577161E1,2.005783558E0,1.348953724E0,-9.858429432E-1
2.862523338E1,-8.225327730E-1,8.662018180E-1,-9.182456732E-1
2.864469515E1,-3.059821844E0,-2.267199457E-1,-8.673982024E-1
2.866415692E1,-4.078566074E0,-1.063609719E0,-5.234299302E-1
2.868361869E1,-3.668197155E0,-1.217348576E0,9.930214286E-2
2.870308046E1,-2.088335991E0,-4.683950245E-1,8.368897438E-1
2.872254223E1,5.742774159E-2,7.525427341E-1,1.285543919E0
2.874200400E1,1.265205026E0,1.279561877E0,1.629512191E0
2.876146578E1,1.004985452E0,2.997010350E-1,1.329213023E0
2.878092755E1,6.364908218E-1,-6.155536175E-1,5.766702294E-1
2.880038932E1,5.982056856E-1,-1.085743308E0,1.028913707E-1
2.881985098E1,2.287538528E0,-7.429714203E-1,-1.262812138E0
2.883931275E1,6.683153629E0,5.186443329E-1,-2.866601467E0
2.885877452E1,1.448016644E1,2.126022816E0,-5.908477306E0
2.887823630E1,2.612902451E1,3.324228764E0,-5.624927998E0
2.889769807E1,3.424667740E1,2.111067772E0,-4.684548378E0
2.891715984E1,2.580180740E1,6.305087805E-1,-4.817948341E0
2.893662161E1,1.763749504E1,-3.208775282E0,-3.770490170E0
2.895608338E1,1.761536217E1,1.207777262E0,3.991826296E0
2.897554515E1,1.136889839E1,1.249651670E0,3.595814228E0
2.899500692E1,9.766903877E0,-5.928218365E-1,1.092323542E0
2.901446869E1,6.662814617E0,-6.831508875E-1,1.322632670E0
2.903393046E1,4.073182583E0,-9.272187948E-2,1.123430252E0
2.905339223E1,2.517249346E0,4.600201547E-1,-1.244267821E0
2.907285400E1,1.328016520E0,-1.980060786E-1,-3.671188116E0
2.909231578E1,2.219941139E0,-1.228714466E0,-4.202992916E0
2.911177755E1,6.821937561E0,-9.714859724E-1,-2.231307030E0
2.913123932E1,1.277408409E1,5.676971674E-1,-1.100698411E-1
2.915070109E1,1.734676743E1,1.361516118E0,-4.133601189E-1
2.917016286E1,1.913779640E1,9.948160052E-1,-1.630110383E0
2.918962463E1,1.477388477E1,1.049850941E0,-1.366301775E0
2.920908640E1,1.001515961E1,1.182054400E0,-3.445664644E-1
2.922854817E1,7.384849072E0,9.924231768E-1,6.191428304E-1
2.924800994E1,6.640681267E0,6.556333899E-1,1.056431174E0
2.926747171E1,7.195217609E0,3.882354796E-1,6.909275651E-1
2.928693348E1,8.377870560E0,3.678964674E-1,-5.383851007E-3
2.930639525E1,9.668199539E0,5.282155871E-1,-6.161518097E-1
2.932585692E1,1.060558796E1,7.788637877E-1,-1.060020447E0
2.934531869E1,1.087418270E1,8.207381964E-1,-1.453639746E0
2.936478046E1,1.064088249E1,5.946164131E-1,-1.458425403E0
2.938424223E1,1.036929703E1,3.002992272E-1,-1.205384374E0
2.940370400E1,9.905687332E0,1.184447184E-1,-8.901300430E-1
2.942316578E1,9.588638306E0,3.373879790E-1,-5.371887088E-1
2.944262755E1,9.591629982E0,6.161518097E-1,-1.322034448E-1
2.946208932E1,9.781859398E0,5.982056856E-1,4.067798331E-2
2.948155109E1,9.905089378E0,5.258227587E-1,-1.244267747E-1
2.950101286E1,9.888937950E0,4.785645306E-1,-3.248256743E-1
2.952047463E1,9.792626381E0,5.742774606E-1,-3.062812984E-1
2.953993640E1,9.582057953E0,6.215356588E-1,-1.232303679E-1
2.955939817E1,9.492327690E0,6.669993401E-1,-5.982056633E-2
2.957885994E1,9.697511673E0,5.994020700E-1,-1.663011760E-1
2.959832171E1,9.656833649E0,1.668993831E-1,-3.146561682E-1
2.961778348E1,9.471389771E0,1.830509305E-1,-2.285145670E-1
2.963724525E1,1.010010433E1,8.494520187E-1,-1.932204217E-1
2.965670703E1,1.051585770E1,1.496710539E0,-4.594219327E-1
2.967616880E1,9.445069313E0,8.691928387E-1,-1.782652885E-1
2.969563057E1,9.780064583E0,5.515456200E-1,4.540380836E-1
2.971509234E1,9.653244972E0,6.293123364E-1,2.632105052E-1
2.973455411E1,1.020837975E1,2.362912297E-1,2.201396823E-1
2.975401578E1,1.012463093E1,1.914258152E-1,1.184447184E-1
2.977347755E1,9.763913155E0,6.813562512E-1,-1.908276081E-1
2.979293932E1,9.552147865E0,9.110672474E-1,-1.555334777E-1
2.981240109E1,9.682557106E0,8.255237937E-1,1.399801224E-1
2.983186286E1,1.015753174E1,6.622136831E-1,3.080759048E-1
2.985132463E1,1.024008465E1,4.253242314E-1,9.631111473E-2
2.987078640E1,1.000857925E1,2.727817893E-1,-3.768695518E-2
2.989024817E1,9.824930191E0,2.147558331E-1,1.106680483E-1
2.990970994E1,9.642477036E0,3.643072546E-1,1.836491376E-1
2.992917171E1,9.457631111E0,5.682953596E-1,1.908276081E-1
2.994863348E1,9.406784058E0,8.470591903E-1,6.041877344E-2
2.996809525E1,9.519845009E0,1.005583763E0,8.973085321E-3
2.998755702E1,9.524032593E0,8.111668825E-1,-1.322034448E-1
3.000701880E1,9.734002113E0,5.168496966E-1,-2.889333367E-1
3.002648057E1,1.011805058E1,5.641079545E-1,-4.713860750E-1
3.004594234E1,1.013659477E1,5.784648657E-1,-5.880361795E-1
3.006540411E1,1.004626560E1,5.186443329E-1,-5.347958803E-1
3.008486588E1,9.891330719E0,3.948157430E-1,-2.207378894E-1
3.010432765E1,9.732208252E0,3.583251834E-1,5.862415582E-2
3.012378942E1,9.641280174E0,5.000999570E-1,3.290131316E-2
3.014325119E1,9.649057388E0,5.509474277E-1,-2.183450609E-1
3.016271296E1,9.811769485E0,4.313062727E-1,-4.319044948E-1
3.018217473E1,9.948758125E0,2.291127741E-1,-4.055834413E-1
3.020163640E1,9.846465111E0,2.285145670E-1,-2.745763958E-1
3.022109817E1,9.544371605E0,4.671986103E-1,-2.350948304E-1
3.024055994E1,9.442078590E0,7.746763229E-1,-3.116651475E-1
3.026002171E1,9.571888924E0,9.008977413E-1,-4.025924206E-1
3.027948348E1,9.798608780E0,6.849454641E-1,-4.259224236E-1
3.029894525E1,9.964311600E0,2.530409992E-1,-3.894318938E-1
3.031840703E1,1.006002426E1,-7.597211748E-2,-2.811566591E-1
3.033786880E1,1.004806042E1,1.459621787E-1,-2.679961324E-1
3.035733057E1,9.872187614E0,6.257231236E-1,-2.679961324E-1
3.037679234E1,9.697511673E0,8.069794178E-1,-1.621137410E-1
3.039625411E1,9.441479683E0,4.923232496E-1,-1.962114573E-1
3.041571588E1,9.386445045E0,-2.931207716E-1,-2.309073806E-1
3.043517765E1,9.300303459E0,-9.912267923E-1,-2.297109663E-1
3.045463942E1,9.022137642E0,-1.402194023E0,-1.016949639E-1
3.047410119E1,8.902496338E0,-1.337587833E0,1.292124242E-1
3.049356296E1,9.002396584E0,-7.836494446E-1,3.487538993E-1
3.051302473E1,9.619745255E0,3.397808075E-1,6.221339107E-1
3.053248650E1,1.119841003E1,1.342373490E0,3.846462369E-1
3.055194828E1,1.302473164E1,1.808973908E0,-2.614158690E-1
3.057141005E1,1.306241894E1,1.379462242E0,-4.510470629E-1
3.059087182E1,1.127976608E1,3.690928817E-1,-2.829512656E-1
3.061033359E1,9.637691498E0,-2.225325108E-1,1.674975827E-2
3.062979525E1,8.891729355E0,-2.249253243E-1,4.271188378E-1
3.064925702E1,8.833105087E0,1.495514158E-2,7.088736892E-1
3.066871880E1,9.077172279E0,1.704886109E-1,5.330012441E-1
3.068818057E1,9.552147865E0,2.255235314E-1,1.004985496E-1
3.070764234E1,9.691530228E0,2.907279432E-1,-3.020938635E-1
3.072710411E1,9.784850121E0,1.579262912E-1,-4.947160780E-1
3.074656588E1,9.905089378E0,-1.603191197E-1,-4.217349887E-1
3.076602765E1,9.890133858E0,-5.389832854E-1,-1.363908947E-1
3.078548942E1,9.788438797E0,-8.602197170E-1,7.477571070E-2
3.080495119E1,9.880562782E0,-9.092726111E-1,2.955136001E-1
3.082441296E1,9.823135376E0,-5.371887088E-1,3.702892959E-1
3.084387473E1,9.586245537E0,2.177468538E-1,2.297109663E-1
3.086333650E1,9.188439369E0,7.956135273E-1,-6.340979785E-2
3.088279828E1,8.927022934E0,6.807580590E-1,-2.757728100E-1
3.090226005E1,9.212965012E0,2.470589429E-1,-3.541377485E-1
3.092172182E1,9.931410789E0,1.489532143E-1,-2.572284341E-1
3.094118359E1,1.026341438E1,5.144568682E-1,-8.135596663E-2
3.096064536E1,9.987641335E0,7.256234884E-1,8.973085135E-2
3.098010713E1,9.711869240E0,4.432703853E-1,3.493520916E-1
3.099956890E1,9.799206734E0,1.555334684E-2,6.550351977E-1
3.101903067E1,9.982257843E0,-3.302095234E-1,9.170492887E-1
3.103849244E1,1.030229759E1,-6.209374666E-1,6.293123364E-1
3.105795421E1,1.057567787E1,-8.602197170E-1,-1.130608693E-1
3.107741598E1,1.090708351E1,-7.148557901E-1,-6.269195080E-1
3.109687775E1,1.152084255E1,-1.208375469E-1,-1.028315544E0
3.111633952E1,1.171645641E1,3.858426511E-1,-1.134796143E0
3.113580130E1,1.118345451E1,1.968096644E-1,-1.263410330E0
3.115526307E1,1.071386337E1,-2.201396823E-1,-1.880758643E0
3.117472484E1,1.027238750E1,-1.292124242E-1,-2.322234392E0
3.119418661E1,9.678369522E0,3.786641955E-1,-2.535793781E0
3.121364828E1,8.863613129E0,5.778666735E-1,-2.482553482E0
3.123311005E1,8.115258217E0,5.030909777E-1,-2.513062000E0
3.125257182E1,7.676773071E0,3.427718580E-1,-2.525624275E0
3.127203359E1,7.534400463E0,3.050848842E-1,-2.209771633E0
3.129149536E1,7.670193195E0,7.256234884E-1,-1.701296926E0
3.131095713E1,8.371290207E0,1.164108157E0,-1.621137381E0
3.133041890E1,9.829116821E0,1.363310695E0,-2.095514536E0
3.134988067E1,1.123789120E1,1.250249863E0,-2.833700180E0
3.136934244E1,1.168534946E1,9.505487680E-1,-3.339782238E0
3.138880421E1,1.077488041E1,8.697910309E-1,-3.407379389E0
3.140826598E1,9.549157143E0,1.214357495E0,-2.928814888E0
3.142772775E1,8.448458672E0,1.674377680E0,-2.176272154E0
3.144718953E1,8.057829857E0,1.999203324E0,-1.818545222E0
3.146665130E1,8.295317650E0,2.081157446E0,-1.826321840E0
3.148611307E1,8.882157326E0,1.770090580E0,-1.962712765E0
3.150557484E1,9.341579437E0,1.304088354E0,-2.026122570E0
3.152503661E1,9.279964447E0,9.744769931E-1,-1.878963947E0
3.154449838E1,9.097511292E0,8.452646136E-1,-1.570888042E0
3.156396015E1,9.155537605E0,6.490531564E-1,-1.475175142E0
3.158342182E1,9.182456970E0,5.694918036E-1,-2.182254314E0
3.160288359E1,8.880363464E0,1.004985452E0,-2.786442041E0
3.162234536E1,8.279166222E0,1.531406522E0,-2.886940479E0
3.164180713E1,7.830512047E0,1.753939033E0,-2.899502754E0
3.166126890E1,7.941180229E0,1.432104349E0,-3.085544825E0
3.168073067E1,8.573483467E0,1.060618639E0,-3.708875179E0
3.170019244E1,9.045467377E0,9.786644578E-1,-4.517649174E0
3.171965421E1,9.330811501E0,1.537986755E0,-4.807180882E0
3.173911598E1,9.476176262E0,2.100898266E0,-4.507479668E0
3.175857775E1,9.163313866E0,1.836491346E0,-4.109673023E0
3.177803952E1,8.810971260E0,7.902296782E-1,-3.918845177E0
3.179750130E1,8.688937187E0,-1.824527234E-1,-3.873979807E0
3.181696307E1,8.906683922E0,-4.618147612E-1,-4.016951084E0
3.183642484E1,9.562915802E0,5.264209956E-2,-4.397409916E0
3.185588661E1,1.007557774E1,1.054038405E0,-4.890331268E0
3.187534838E1,9.917053223E0,1.621137381E0,-5.086542606E0
3.189481015E1,9.233902931E0,1.374676585E0,-5.112864017E0
3.191427192E1,8.660821915E0,7.369893789E-1,-5.261219025E0
3.193373369E1,8.663214684E0,4.671986103E-1,-5.291129112E0
3.195319546E1,8.937192917E0,5.688936114E-1,-5.217549801E0
3.197265723E1,9.031708717E0,6.687939167E-1,-5.273781300E0
3.199211900E1,8.870193481E0,7.525427341E-1,-5.475376606E0
3.201158078E1,8.722436905E0,8.135597110E-1,-5.688337803E0
3.203104255E1,8.641080856E0,7.734799385E-1,-5.788836002E0
3.205050432E1,8.577073097E0,7.022934556E-1,-5.751747608E0
3.206996598E1,8.394619942E0,7.082754970E-1,-5.622535229E0
3.208942775E1,8.122436523E0,7.716853023E-1,-5.472385406E0
3.210888952E1,7.935796261E0,7.770691514E-1,-5.429314613E0
3.212835130E1,7.934001446E0,6.879364848E-1,-5.526822090E0
3.214781307E1,8.075776100E0,5.928218365E-1,-5.629115105E0
3.216727484E1,8.220541954E0,5.473581553E-1,-5.701498032E0
3.218673661E1,8.214560509E0,5.018945336E-1,-5.740381718E0
3.220619838E1,8.012965202E0,4.468596280E-1,-5.721837044E0
3.222566015E1,7.755736351E0,3.397808075E-1,-5.612365723E0
3.224512192E1,7.850851059E0,3.613162339E-1,-5.539384365E0
3.226458369E1,7.912466049E0,5.096712112E-1,-5.450251579E0
3.228404546E1,7.899305820E0,6.622136831E-1,-5.537590027E0
3.230350723E1,7.838887215E0,6.837490797E-1,-5.731408596E0
3.232296900E1,7.864011765E0,6.137589812E-1,-5.776273727E0
3.234243078E1,7.908278942E0,4.983053207E-1,-5.599802971E0
3.236189255E1,7.959724426E0,4.875376225E-1,-5.486144066E0
3.238135432E1,7.983652592E0,5.204389095E-1,-5.411966801E0
3.240081609E1,8.028517723E0,5.054838061E-1,-5.385047436E0
3.242027786E1,7.994420528E0,4.797609448E-1,-5.440082073E0
3.243973963E1,8.029116631E0,4.510470629E-1,-5.474180222E0
3.245920140E1,8.176873207E0,5.156532526E-1,-5.548357487E0
3.247866317E1,8.276175499E0,6.017948985E-1,-5.514259815E0
3.249812494E1,8.203792572E0,5.748756528E-1,-5.403591633E0
3.251758661E1,7.990831375E0,4.336991012E-1,-5.302495003E0
3.253704838E1,8.067401886E0,3.984049559E-1,-5.311468124E0
3.255651015E1,8.242675781E0,3.469592929E-1,-5.353940487E0
3.257597192E1,8.379665375E0,3.744767308E-1,-5.383851051E0
3.259543369E1,8.344370842E0,4.492524564E-1,-5.425127029E0
3.261489546E1,8.209774017E0,5.210371017E-1,-5.467001438E0
3.263435723E1,8.178069115E0,6.119644046E-1,-5.449055195E0
3.265381900E1,8.295317650E0,6.532405615E-1,-5.400600910E0
3.267328078E1,8.312067986E0,6.664010882E-1,-5.387440205E0
3.269274255E1,8.282156944E0,6.939185858E-1,-5.440680504E0
3.271220432E1,8.257032394E0,6.370890141E-1,-5.455037594E0
3.273166609E1,8.128418922E0,6.622136831E-1,-5.349154949E0
3.275112786E1,8.137392044E0,6.879364848E-1,-5.277370453E0
3.277058963E1,8.188837051E0,6.520441771E-1,-5.331208706E0
3.279005140E1,8.233104706E0,5.222335458E-1,-5.436492920E0
3.280951317E1,8.292924881E0,3.601198196E-1,-5.457430363E0
3.282897494E1,8.214560509E0,2.847459018E-1,-5.382654667E0
3.284843671E1,8.138587952E0,3.349951804E-1,-5.303691387E0
3.286789848E1,8.160721779E0,4.396811724E-1,-5.270790100E0
3.288736025E1,8.128418922E0,5.066801906E-1,-5.294120312E0
3.290682203E1,8.103293419E0,5.000999570E-1,-5.348556995E0
3.292628380E1,8.119445801E0,5.276173949E-1,-5.393422127E0
3.294574557E1,8.121838570E0,5.455635786E-1,-5.379065514E0
3.296520734E1,8.142775536E0,5.300102234E-1,-5.333003521E0
3.298466900E1,8.143971443E0,5.030909777E-1,-5.341378212E0
3.300413078E1,8.151150703E0,4.336991012E-1,-5.363512039E0
3.302359255E1,8.155936241E0,3.792623878E-1,-5.362315655E0
3.304305432E1,8.163712502E0,3.924229145E-1,-5.359324455E0
3.306251609E1,8.138587952E0,4.450650215E-1,-5.347958565E0
3.308197786E1,8.172087669E0,4.929214716E-1,-5.363512039E0
3.310143963E1,8.264809608E0,5.204389095E-1,-5.383252621E0
3.312090140E1,8.315058708E0,4.959124923E-1,-5.392225742E0
3.314036317E1,8.281558990E0,4.923232496E-1,-5.347958565E0
3.315982494E1,8.278568268E0,4.809573591E-1,-5.290530682E0
3.317928671E1,8.237890244E0,4.301098585E-1,-5.301896572E0
3.319874848E1,8.161917686E0,4.307080805E-1,-5.344369411E0
3.321821025E1,8.244470596E0,4.504488707E-1,-5.406582832E0
3.323767202E1,8.274380684E0,4.899304509E-1,-5.400002480E0
3.325713380E1,8.252845764E0,4.438686073E-1,-5.350949764E0
3.327659557E1,8.225926399E0,3.858426511E-1,-5.270191669E0
3.329605734E1,8.208578110E0,4.031906128E-1,-5.232504845E0
3.331551911E1,8.194819450E0,4.432703853E-1,-5.247459888E0
3.333498088E1,8.225327492E0,4.600201547E-1,-5.265406132E0
3.335444265E1,8.232506752E0,4.313062727E-1,-5.289932728E0
3.337390442E1,8.267800331E0,4.187439680E-1,-5.263611794E0
3.339336609E1,8.271389961E0,3.589234054E-1,-5.286941528E0
3.341282786E1,8.268398285E0,3.086741269E-1,-5.289932728E0
3.343228963E1,8.351549149E0,3.038884699E-1,-5.182255745E0
3.345175140E1,8.496912956E0,3.415754437E-1,-5.078167915E0
3.347121317E1,8.698508263E0,4.289134443E-1,-5.007579803E0
3.349067494E1,8.843872070E0,5.066801906E-1,-5.039882660E0
3.351013671E1,8.956933022E0,4.995017350E-1,-5.042873859E0
3.352959848E1,9.262616158E0,3.942175210E-1,-4.982454777E0
3.354906025E1,9.620942116E0,3.786641955E-1,-4.824528694E0
3.356852202E1,9.827920914E0,4.360919297E-1,-4.700700283E0
3.358798380E1,9.896116257E0,4.492524564E-1,-4.670191765E0
3.360744557E1,9.846465111E0,4.001995921E-1,-4.624129772E0
3.362690734E1,9.767501831E0,3.672982752E-1,-4.490131855E0
3.364636911E1,9.793823242E0,4.175475538E-1,-4.339384079E0
3.366583088E1,9.715457916E0,5.353940725E-1,-4.128217220E0
3.368529265E1,9.556933403E0,6.215356588E-1,-3.973282099E0
3.370475442E1,9.467203140E0,5.856433511E-1,-3.908675671E0
3.372421619E1,9.333803177E0,5.611169338E-1,-3.876372576E0
3.374367796E1,9.157332420E0,5.706881881E-1,-3.752544165E0
3.376313963E1,9.107681274E0,5.377869010E-1,-3.542573929E0
3.378260140E1,9.053842545E0,4.618147612E-1,-3.253640652E0
3.380206317E1,9.013164520E0,4.390829504E-1,-3.110669374E0
3.382152494E1,8.952746391E0,5.533402562E-1,-3.019742250E0
3.384098671E1,8.826524734E0,6.556333899E-1,-2.985046148E0
3.386044848E1,8.764310837E0,7.998009920E-1,-2.958725214E0
3.387991025E1,8.769695282E0,8.500502706E-1,-2.865405083E0
3.389937203E1,8.860024452E0,7.495517135E-1,-2.744567633E0
3.391883380E1,9.054440498E0,6.801598072E-1,-2.627319336E0
3.393829557E1,9.274580956E0,7.549355626E-1,-2.556730986E0
3.395775734E1,9.376873970E0,8.787640929E-1,-2.484348059E0
3.397721911E1,9.232706070E0,8.997012973E-1,-2.345564365E0
3.399668088E1,9.155537605E0,7.830511928E-1,-2.163111687E0
3.401614265E1,9.205786705E0,6.358926296E-1,-1.944168448E0
3.403560442E1,9.319445610E0,6.233302951E-1,-1.811964989E0
3.405506619E1,9.368498802E0,7.345965505E-1,-1.769492388E0
3.407452796E1,9.391828537E0,7.860422134E-1,-1.765304923E0
3.409398973E1,9.296115875E0,8.368897438E-1,-1.662413478E0
3.411345150E1,9.302696228E0,8.626125455E-1,-1.540379524E0
3.413291328E1,9.439684868E0,8.709874153E-1,-1.429113269E0
3.415237505E1,9.591031075E0,8.913264275E-1,-1.219143152E0
3.417183671E1,9.680164337E0,7.531409264E-1,-1.061815023E0
3.419129848E1,9.699306488E0,5.054838061E-1,-1.089930773E0
3.421076025E1,9.565308571E0,4.480560422E-1,-1.119242787E0
3.423022202E1,9.474979401E0,5.030909777E-1,-8.584251404E-1
3.424968380E1,9.458827972E0,5.545366406E-1,-5.676971674E-1
3.426914557E1,9.537193298E0,6.664010882E-1,-4.384847581E-1
3.428860734E1,9.638887405E0,7.094719410E-1,-4.396811724E-1
3.430806911E1,9.583852768E0,5.838487148E-1,-5.611169338E-1
3.432753088E1,9.467203140E0,3.972085714E-1,-7.232306600E-1
3.434699265E1,9.595816612E0,2.979064286E-1,-8.147560954E-1
3.436645442E1,9.909276962E0,4.360919297E-1,-6.281159520E-1
3.438591619E1,9.956535339E0,8.159525394E-1,-3.762713671E-1
3.440537796E1,9.809974670E0,1.021735311E0,-3.481557071E-1
3.442483973E1,9.491728783E0,7.908278704E-1,-4.313062727E-1
3.444430150E1,9.340981483E0,4.229314029E-1,-5.006981492E-1
3.446376328E1,9.451051712E0,1.441675574E-1,-5.635097623E-1
3.448322505E1,9.650253296E0,1.076770201E-2,-6.352944374E-1
3.450268682E1,9.969097137E0,2.488535494E-1,-5.754738450E-1
3.452214859E1,1.016291618E1,7.178468108E-1,-4.695914388E-1
3.454161025E1,1.022453117E1,1.162911773E0,-3.481557071E-1
3.456107202E1,1.004566765E1,1.024726272E0,-2.147558331E-1
3.458053380E1,9.713663101E0,5.048855543E-1,-9.990034252E-2
3.459999557E1,9.446864128E0,7.058826834E-2,-7.357929647E-2
3.461945734E1,9.416355133E0,-2.691925503E-2,1.196411345E-2
3.463891911E1,9.491728783E0,-3.708875179E-2,2.213360965E-1
3.465838088E1,9.887143135E0,-1.615155302E-2,2.542374134E-1
3.467784265E1,1.039262676E1,3.469592705E-2,6.999006122E-2
3.469730442E1,1.050030422E1,2.315055877E-1,-1.208375469E-1
3.471676619E1,1.016471100E1,4.301098585E-1,-8.374879509E-2
3.473622796E1,9.801599503E0,4.941178858E-1,-1.142572835E-1
3.475568973E1,9.656235695E0,6.077769399E-1,-2.572284341E-1
3.477515150E1,9.683753014E0,6.538388133E-1,-3.188436031E-1
3.479461328E1,9.780662537E0,5.563312769E-1,-3.296113312E-1
3.481407505E1,9.927223206E0,2.518445849E-1,-2.925225794E-1
3.483353682E1,1.006480980E1,5.084748194E-2,-3.008974493E-1
3.485299848E1,1.016351414E1,1.118644550E-1,-3.254238665E-1
3.487246025E1,1.013838959E1,2.111666054E-1,-4.522434771E-1
3.489192202E1,9.995418549E0,2.835494876E-1,-5.617151260E-1
3.491138380E1,9.595816612E0,3.194418252E-1,-7.022934556E-1
3.493084557E1,9.318847656E0,2.817548811E-1,-8.135597110E-1
3.495030734E1,9.333803177E0,3.134597540E-1,-8.321040869E-1
3.496976911E1,9.465408325E0,2.787638307E-1,-8.458628058E-1
3.498923088E1,9.683753014E0,1.471585929E-1,-9.008977413E-1
3.500869265E1,9.796216011E0,-2.069791555E-1,-7.519445419E-1
3.502815442E1,1.010548782E1,-1.615155302E-2,-3.888336718E-1
3.504761619E1,1.077069283E1,2.089532375E0,-6.580262631E-2
3.506707796E1,1.023410225E1,1.855035782E0,1.495514158E-2
3.508653973E1,9.096315384E0,-1.884347796E-1,-3.810569942E-1
3.510600150E1,9.577272415E0,2.482553422E-1,-7.764709592E-1
3.512546328E1,1.043150997E1,-1.006181955E0,-3.493520916E-1
3.514492505E1,1.067139053E1,-6.293123364E-1,-3.720839322E-1
3.516438671E1,1.040459061E1,-1.010967568E-1,-7.220342159E-1
3.518384848E1,9.974481583E0,2.697907388E-1,-6.711867452E-1
3.520331025E1,9.729216576E0,5.401797295E-1,-2.494517565E-1
3.522277203E1,9.392427444E0,5.437689424E-1,1.363908947E-1
3.524223380E1,9.044271469E0,3.529413342E-1,1.914258115E-2
3.526169557E1,9.110074043E0,1.244267747E-1,-3.828516304E-1
3.528115734E1,9.570692062E0,-7.178467698E-3,-6.873382926E-1
3.530061911E1,1.008395290E1,-5.982056726E-3,-9.415757060E-1
3.532008088E1,1.033280659E1,1.226321608E-1,-1.130010486E0
3.533954265E1,1.025324535E1,2.943171859E-1,-1.056431174E0
3.535900442E1,1.017069244E1,3.481557071E-1,-7.776673436E-1
3.537846619E1,1.012582684E1,1.633101404E-1,-5.192425251E-1
3.539792796E1,1.003370380E1,-8.255238086E-2,-4.534398913E-1
3.541738973E1,9.865009308E0,-1.962114573E-1,-4.247260094E-1
3.543685150E1,9.608379364E0,-1.076770201E-1,-3.702892959E-1
3.545631328E1,9.410971642E0,4.366901144E-2,-3.678964674E-1
3.547577494E1,9.516255379E0,1.950150430E-1,-4.007977843E-1
3.549523671E1,9.763314247E0,2.901297510E-1,-4.648058116E-1
3.551469848E1,9.981659889E0,3.720839322E-1,-5.210371017E-1
3.553416025E1,1.001515961E1,4.007977843E-1,-6.323033571E-1
3.555362202E1,9.915857315E0,3.948157430E-1,-6.472585201E-1
3.557308380E1,9.905089378E0,3.882354796E-1,-5.862415433E-1
3.559254557E1,9.808179855E0,3.128615618E-1,-4.139583111E-1
3.561200734E1,9.693324089E0,2.362912297E-1,-4.013960063E-1
3.563146911E1,9.823135376E0,3.248256743E-1,-5.282155871E-1
3.565093088E1,9.976874352E0,5.102694035E-1,-6.957131624E-1
3.567039265E1,9.863813400E0,5.886343718E-1,-6.879364848E-1
3.568985442E1,9.812367439E0,5.916253924E-1,-6.538388133E-1
3.570931619E1,9.809974670E0,5.395814776E-1,-4.390829504E-1
3.572877796E1,9.860821724E0,5.796613097E-1,-3.164508045E-1
3.574823973E1,9.881160736E0,6.837490797E-1,-3.714857101E-1
3.576770140E1,9.828518867E0,7.058826685E-1,-4.097708762E-1
3.578716317E1,9.789037704E0,5.940182209E-1,-4.432703853E-1
3.580662494E1,9.815358162E0,5.246263742E-1,-4.713860750E-1
3.582608671E1,9.790832520E0,4.695914388E-1,-4.139583111E-1
3.584554848E1,9.773484230E0,4.785645306E-1,-3.547359705E-1
3.586501025E1,9.825528145E0,4.648058116E-1,-2.955136001E-1
3.588447202E1,9.863813400E0,5.551348329E-1,-3.308077157E-1
3.590393380E1,9.790233612E0,5.868397355E-1,-3.523431420E-1
3.592339557E1,9.765109062E0,5.437689424E-1,-3.451646566E-1
3.594285734E1,9.846465111E0,4.965106845E-1,-3.661018610E-1
3.596231911E1,9.909276962E0,4.995017350E-1,-3.984049559E-1
3.598178088E1,9.918250084E0,5.856433511E-1,-4.378865361E-1
3.600124265E1,9.858428955E0,5.982056856E-1,-3.936193287E-1
3.602070432E1,9.783653259E0,5.670989752E-1,-3.343969584E-1
3.604016609E1,9.713663101E0,5.234299302E-1,-2.907279432E-1
3.605962786E1,9.734002113E0,4.863412082E-1,-2.829512656E-1
3.607908963E1,9.810572624E0,5.096712112E-1,-2.566302419E-1
3.609855140E1,9.798010826E0,4.869394004E-1,-2.614158690E-1
3.611801317E1,9.893125534E0,4.109672904E-1,-3.242274821E-1
3.613747494E1,9.965508461E0,4.576273263E-1,-4.534398913E-1
3.615693671E1,9.795618057E0,4.259224236E-1,-4.737788737E-1
3.617639848E1,9.822537422E0,3.326023519E-1,-5.066801906E-1
3.619586025E1,9.969097137E0,4.019941986E-1,-3.990031779E-1
3.621532202E1,9.918250084E0,5.042873621E-1,-3.385843933E-1
3.623478380E1,9.778269768E0,5.000999570E-1,-4.546363056E-1
3.625424546E1,9.748359680E0,3.948157430E-1,-5.808576941E-1
3.627370723E1,9.835697174E0,3.439682424E-1,-6.388836503E-1
3.629316900E1,9.879366875E0,4.241278172E-1,-6.245267391E-1
3.631263078E1,9.842875481E0,5.198407173E-1,-5.706881881E-1
3.633209255E1,9.815957069E0,4.977070987E-1,-5.120640397E-1
3.635155432E1,9.816555023E0,4.390829504E-1,-5.210371017E-1
3.637101609E1,9.858428955E0,3.056831062E-1,-5.048855543E-1
3.639047786E1,9.906884193E0,2.793620527E-1,-4.833501875E-1
3.640993963E1,9.862616539E0,3.421736360E-1,-5.306084156E-1
3.642940140E1,9.815957069E0,4.576273263E-1,-6.293123364E-1
3.644886317E1,9.771091461E0,4.923232496E-1,-6.191428304E-1
3.646832494E1,9.793225288E0,4.259224236E-1,-5.856433511E-1
3.648778671E1,9.840482712E0,3.924229145E-1,-5.820540786E-1
3.650724848E1,9.900303841E0,4.773681164E-1,-5.898307562E-1
3.652671025E1,9.914062500E0,5.060819983E-1,-5.862415433E-1
3.654617192E1,9.884152412E0,4.378865361E-1,-6.448656917E-1
3.656563369E1,9.774680138E0,4.384847581E-1,-6.101697683E-1
3.658509546E1,9.694520950E0,4.695914388E-1,-5.670989752E-1
3.660455723E1,9.817152977E0,5.078766346E-1,-5.712863803E-1
3.662401900E1,9.961320877E0,5.138586760E-1,-6.843472719E-1
3.664348078E1,9.902696609E0,4.570291340E-1,-6.514459848E-1
3.666294255E1,9.861420631E0,4.666004181E-1,-6.424728632E-1
3.668240432E1,9.780064583E0,5.258227587E-1,-6.011967063E-1
3.670186609E1,9.726823807E0,5.670989752E-1,-5.868397355E-1
3.672132786E1,9.803394318E0,5.431707501E-1,-6.586244106E-1
3.674078963E1,9.856635094E0,5.096712112E-1,-7.345965505E-1
3.676025140E1,9.878767967E0,5.018945336E-1,-7.537391186E-1
3.677971307E1,9.809376717E0,5.485545993E-1,-7.280163169E-1
3.679917484E1,9.732806206E0,5.288137794E-1,-6.927221417E-1
3.681863661E1,9.716654778E0,4.953143001E-1,-6.921239495E-1
3.683809838E1,9.757332802E0,4.893322289E-1,-7.046862841E-1
3.685756015E1,9.824930191E0,5.264210105E-1,-7.417750359E-1
3.687702192E1,9.823733330E0,5.431707501E-1,-7.507480979E-1
3.689648369E1,9.790832520E0,5.437689424E-1,-7.417750359E-1
3.691594546E1,9.784850121E0,5.365904570E-1,-7.537391186E-1
3.693540723E1,9.798010826E0,5.174478889E-1,-7.471588850E-1
3.695486900E1,9.793225288E0,4.929214716E-1,-7.357929349E-1
3.697433078E1,9.817750931E0,4.953143001E-1,-7.519445419E-1
3.699379255E1,9.796216011E0,5.186443329E-1,-7.824530005E-1
3.701325421E1,9.803394318E0,5.294120312E-1,-7.962117195E-1
3.703271598E1,9.854242325E0,5.096712112E-1,-8.123632669E-1
3.705217775E1,9.737591743E0,5.042873621E-1,-7.609176040E-1
3.707163952E1,9.736993790E0,4.570291340E-1,-7.776673436E-1
3.709110130E1,9.827920914E0,4.695914388E-1,-8.081758618E-1
3.711056307E1,9.905089378E0,5.090730190E-1,-8.470591903E-1
3.713002484E1,9.868000984E0,5.078766346E-1,-8.195417523E-1
3.714948661E1,9.842875481E0,5.108676553E-1,-7.788637877E-1
3.716894838E1,9.763913155E0,5.282155871E-1,-7.196413875E-1
3.718841015E1,9.752547264E0,5.371887088E-1,-6.382854581E-1
3.720787192E1,9.819545746E0,5.132604837E-1,-6.903293133E-1
3.722733369E1,9.832108498E0,4.689932466E-1,-8.051848412E-1
3.724679536E1,9.869196892E0,5.102694035E-1,-9.032905698E-1
3.726625713E1,9.870991707E0,5.300102234E-1,-9.152546525E-1
3.728571890E1,9.832706451E0,5.700899959E-1,-9.020941257E-1
3.730518067E1,9.780662537E0,5.778666735E-1,-8.817551732E-1
3.732464244E1,9.786046028E0,5.736792088E-1,-8.500502706E-1
3.734410421E1,9.845867157E0,5.479564071E-1,-8.656035662E-1
3.736356598E1,9.851848602E0,5.377869010E-1,-8.763712645E-1
3.738302775E1,9.806983948E0,5.688936114E-1,-9.038887620E-1
3.740248952E1,9.769894600E0,5.706881881E-1,-9.068797827E-1
3.742195130E1,9.769894600E0,5.665007830E-1,-9.212366939E-1
3.744141296E1,9.834501266E0,5.389832854E-1,-9.361918569E-1
3.746087473E1,9.898509026E0,5.635097623E-1,-9.302098155E-1
3.748033650E1,9.865009308E0,5.844469070E-1,-9.290133715E-1
3.749979828E1,9.824930191E0,5.982056856E-1,-9.678967595E-1
3.751926005E1,9.797411919E0,5.808576941E-1,-9.774680734E-1
3.753872182E1,9.713065147E0,5.892325640E-1,-9.050851464E-1
3.755818359E1,9.721440315E0,5.395814776E-1,-9.176474810E-1
3.757764536E1,9.853643417E0,5.742774606E-1,-9.840483069E-1
3.759710713E1,9.911669731E0,6.191428304E-1,-1.053440213E0
3.761656890E1,9.827322960E0,6.077769399E-1,-9.900303483E-1
3.763603057E1,9.835697174E0,5.730810165E-1,-9.050851464E-1
3.765549234E1,9.832108498E0,5.449653864E-1,-8.225327730E-1
3.767495411E1,9.813564301E0,5.700899959E-1,-8.739784956E-1
3.769441588E1,9.759725571E0,5.922235847E-1,-9.433703423E-1
3.771387765E1,9.728618622E0,5.742774606E-1,-9.529415965E-1
3.773333942E1,9.777671814E0,5.629115105E-1,-8.883354068E-1
3.775280119E1,9.839286804E0,5.605186820E-1,-8.877372146E-1
3.777226296E1,9.835099220E0,5.904290080E-1,-9.236295223E-1
3.779172473E1,9.802796364E0,6.065805554E-1,-8.961120844E-1
3.781118650E1,9.809974670E0,5.910272002E-1,-8.548358679E-1
3.783064817E1,9.851250648E0,5.629115105E-1,-8.249256015E-1
3.785010994E1,9.837491989E0,5.282155871E-1,-8.081758618E-1
3.786957171E1,9.806983948E0,5.264210105E-1,-7.776673436E-1
3.788903348E1,9.749555588E0,5.300102234E-1,-7.387840152E-1
3.790849525E1,9.741181374E0,5.575276613E-1,-7.274180651E-1
3.792795703E1,9.769296646E0,6.035895348E-1,-7.489534616E-1
3.794741880E1,9.829715729E0,6.000002623E-1,-7.722834945E-1
3.796688057E1,9.820143700E0,5.581258535E-1,-7.842476368E-1
3.798634223E1,9.794421196E0,5.198407173E-1,-8.590233326E-1
3.800580400E1,9.854840279E0,5.395814776E-1,-8.560323119E-1
3.802526578E1,9.809376717E0,5.688936114E-1,-7.579265833E-1
3.804472755E1,9.758528709E0,5.162515044E-1,-7.304090858E-1
3.806418932E1,9.826126099E0,4.695914388E-1,-8.315058947E-1
3.808365109E1,9.859027863E0,5.180460811E-1,-9.409775138E-1
3.810311286E1,9.820742607E0,5.389832854E-1,-8.955138922E-1
3.812257463E1,9.799804688E0,4.863412082E-1,-8.542376757E-1
3.814203640E1,9.742975235E0,4.833501875E-1,-7.531409264E-1
3.816149817E1,9.719047546E0,5.407779217E-1,-6.987041831E-1
3.818095984E1,9.760921478E0,5.802595019E-1,-7.716853023E-1
3.820042161E1,9.854242325E0,5.443671346E-1,-8.506484628E-1
3.821988338E1,9.917651176E0,4.600201547E-1,-8.410771489E-1
3.823934515E1,9.911669731E0,4.534398913E-1,-8.321040869E-1
3.825880692E1,9.854242325E0,4.809573591E-1,-7.992027402E-1
3.827826869E1,9.833304405E0,5.144568682E-1,-7.435696125E-1
3.829773046E1,9.838089943E0,4.971089065E-1,-7.387840152E-1
3.831719223E1,9.817750931E0,4.731806815E-1,-7.986045480E-1
3.833665400E1,9.777072906E0,5.162515044E-1,-8.668000102E-1
3.835611567E1,9.745966911E0,5.575276613E-1,-8.470591903E-1
3.837557744E1,9.744770050E0,5.599204898E-1,-7.854440212E-1
3.839503921E1,9.782457352E0,4.887340367E-1,-7.657032609E-1
3.841450098E1,9.812965393E0,4.289134443E-1,-7.657032609E-1
3.843396275E1,9.847661972E0,4.504488707E-1,-7.399803996E-1
3.845342452E1,9.817152977E0,5.012963414E-1,-6.993024349E-1
3.847288630E1,9.770493507E0,5.102694035E-1,-7.262216806E-1
3.849234807E1,9.853045464E0,4.863412082E-1,-7.184450030E-1
3.851180973E1,9.921240807E0,4.522434771E-1,-6.616154313E-1
3.853127150E1,9.928419113E0,4.301098585E-1,-6.777670383E-1
3.855073328E1,9.889535904E0,4.701896608E-1,-7.316055298E-1
3.857019505E1,9.822537422E0,5.688936114E-1,-8.344969153E-1
3.858965682E1,9.664012909E0,5.988038778E-1,-8.147560954E-1
3.860911859E1,9.700503349E0,5.359922647E-1,-7.663014531E-1
3.862858036E1,9.786644936E0,5.425725579E-1,-6.275177598E-1
3.864804213E1,9.811769485E0,5.892325640E-1,-5.754738450E-1
3.866750390E1,9.790233612E0,6.245267391E-1,-7.154539824E-1
3.868696557E1,9.817152977E0,5.952146053E-1,-8.219345808E-1
3.870642734E1,9.914660454E0,6.257231236E-1,-6.717849374E-1
3.872588911E1,9.923035622E0,6.843472719E-1,-4.504488707E-1
3.874535088E1,9.932606697E0,6.735795736E-1,-4.767699242E-1
3.876481265E1,9.915857315E0,6.466603279E-1,-5.306084156E-1
3.878427442E1,9.865009308E0,6.460621357E-1,-5.228317380E-1
3.880373619E1,9.820742607E0,5.910272002E-1,-5.018945336E-1
3.882319796E1,9.827920914E0,5.784648657E-1,-5.150550604E-1
3.884265963E1,9.801001549E0,6.664010882E-1,-5.353940725E-1
3.886212140E1,9.709476471E0,7.938188910E-1,-5.479564071E-1
3.888158317E1,9.680762291E0,8.333004713E-1,-5.365904570E-1
3.890104494E1,9.756135941E0,8.249256015E-1,-5.395814776E-1
3.892050671E1,9.885348320E0,7.435696125E-1,-5.688936114E-1
3.893996848E1,9.937392235E0,6.311069727E-1,-6.556333899E-1
3.895943025E1,9.900303841E0,6.149554253E-1,-7.166503668E-1
3.897889202E1,9.870991707E0,6.658028960E-1,-6.891329288E-1
3.899835369E1,9.829715729E0,7.800601721E-1,-5.204389095E-1
3.901781546E1,9.684949875E0,9.086744189E-1,-4.109672904E-1
3.903727723E1,9.602396965E0,8.871390224E-1,-4.456632137E-1
3.905673900E1,9.793823242E0,7.280163169E-1,-6.849454641E-1
3.907620078E1,9.942177773E0,5.904290080E-1,-8.901300430E-1
3.909566255E1,9.951749802E0,7.004988194E-1,-8.446664214E-1
3.911512432E1,9.906285286E0,8.931210637E-1,-6.729813814E-1
3.913458598E1,9.811170578E0,1.000798106E0,-5.569294691E-1
3.915404775E1,9.729216576E0,9.122636318E-1,-6.113662124E-1
3.917350952E1,9.725627899E0,7.549355626E-1,-7.381857634E-1
3.919297130E1,9.792028427E0,6.520441771E-1,-7.507480979E-1
3.921243307E1,9.827322960E0,6.909275651E-1,-6.981059909E-1
3.923189484E1,9.866804123E0,7.076773047E-1,-6.580262184E-1
3.925135661E1,9.839884758E0,7.082754970E-1,-6.939185858E-1
3.927081838E1,9.856635094E0,6.424728632E-1,-7.316055298E-1
3.929028005E1,9.839286804E0,5.904290080E-1,-7.447660565E-1
3.930974182E1,9.799206734E0,6.364908218E-1,-7.854440212E-1
3.932920359E1,9.746564865E0,6.448656917E-1,-7.698906660E-1
3.934866536E1,9.681360245E0,6.376872063E-1,-7.316055298E-1
3.936812713E1,9.627521515E0,6.592226624E-1,-7.351947427E-1
3.938758890E1,9.619745255E0,6.849454641E-1,-6.801598072E-1
3.940705067E1,9.693922997E0,7.082754970E-1,-6.364908218E-1
3.942651234E1,9.877572060E0,7.453642488E-1,-7.010970116E-1
3.944597411E1,9.951150894E0,7.477570772E-1,-7.166503668E-1
3.946543588E1,9.922437668E0,6.424728632E-1,-6.699903607E-1
3.948489765E1,9.777671814E0,5.820540786E-1,-6.017948985E-1
3.950435942E1,9.632905960E0,6.418746710E-1,-5.102694035E-1
3.952382119E1,9.638289452E0,6.562315822E-1,-5.892325640E-1
3.954328296E1,9.778269768E0,6.340979934E-1,-7.686942816E-1
3.956274463E1,9.826126099E0,5.353940725E-1,-8.590233326E-1
3.958220640E1,9.812367439E0,4.863412082E-1,-7.453642488E-1
3.960166817E1,9.793225288E0,5.252245665E-1,-6.735795736E-1
3.962112994E1,9.762118340E0,5.306084156E-1,-7.890332937E-1
3.964059171E1,9.757930756E0,5.784648657E-1,-9.696913958E-1
3.966005348E1,9.876974106E0,6.723831892E-1,-1.232303619E0
3.967951525E1,9.992427826E0,6.975077987E-1,-1.293320656E0
3.969897692E1,9.917651176E0,5.844469070E-1,-1.210768223E0
3.971843869E1,9.682557106E0,4.971089065E-1,-1.138983607E0
3.973790046E1,9.446864128E0,3.882354796E-1,-1.146760225E0
3.975736223E1,9.366106033E0,4.073780477E-1,-1.169492126E0
3.977682400E1,9.401998520E0,5.192425251E-1,-1.174277663E0
3.979628578E1,9.524032593E0,5.946164131E-1,-1.165902853E0
3.981574744E1,9.625128746E0,5.168496966E-1,-1.161715388E0
3.983520921E1,9.644869804E0,3.822534084E-1,-1.110269666E0
3.985467098E1,9.568299294E0,3.972085714E-1,-1.083948612E0
3.987413275E1,9.486943245E0,4.701896608E-1,-1.177268744E0
3.989359453E1,9.469595909E0,4.977070987E-1,-1.332802176E0
3.991305630E1,9.607781410E0,5.060819983E-1,-1.448854089E0
3.993251807E1,9.755537987E0,5.180460811E-1,-1.482353687E0
