"Time (s)","Gyroscope x (rad/s)","Gyroscope y (rad/s)","Gyroscope z (rad/s)"
6.390720400E-2,1.069013402E-2,-1.099556610E-1,-3.558287397E-2
8.336907900E-2,1.802051067E-2,-1.291978955E-1,-1.985310577E-2
1.028308500E-1,1.817322709E-2,-1.568395346E-1,-1.756236330E-2
1.222927250E-1,1.634063199E-2,-1.795942485E-1,-2.718348242E-2
1.417546000E-1,1.343902480E-2,-2.054032832E-1,-5.619955808E-2
1.612164750E-1,8.246674202E-3,-2.154825479E-1,-7.498364896E-2
1.806782460E-1,2.916879393E-2,-1.861610413E-1,-5.787943676E-2
2.001401210E-1,7.040216774E-2,-1.519526094E-1,-1.679878123E-2
2.196019960E-1,8.643736690E-2,-1.646280587E-1,2.244928107E-2
2.390638710E-1,7.971785218E-2,-2.287688553E-1,4.993819445E-2
2.585256420E-1,6.948586553E-2,-3.089448512E-1,5.726857483E-2
2.779875170E-1,5.925388262E-2,-3.452913165E-1,4.917461425E-2
2.974493920E-1,6.169734150E-2,-3.048215210E-1,4.108065739E-2
3.169112670E-1,9.483675659E-2,-2.205221802E-1,4.337139800E-2
3.363730380E-1,1.507308781E-1,-1.618791670E-1,6.291907281E-2
3.558349130E-1,1.992946416E-1,-1.598938555E-1,8.368847519E-2
3.752967880E-1,2.310595959E-1,-1.974620372E-1,9.178243577E-2
3.947585590E-1,2.542724609E-1,-2.344193608E-1,9.071341902E-2
4.142204340E-1,2.727511227E-1,-2.512181401E-1,9.743293375E-2
4.336823090E-1,2.929096520E-1,-2.530507445E-1,1.081230640E-1
4.531441840E-1,3.248273432E-1,-2.396117151E-1,1.191186309E-1
4.726059540E-1,3.689623177E-1,-2.312123179E-1,1.350011230E-1
4.920678290E-1,4.266890585E-1,-2.440404743E-1,1.704312712E-1
5.115297040E-1,4.941896200E-1,-2.832885385E-1,2.182314396E-1
5.309915790E-1,5.681042671E-1,-3.316995800E-1,2.683223486E-1
5.504533500E-1,6.409498453E-1,-3.591884971E-1,3.113883138E-1
5.699152250E-1,7.038689256E-1,-3.607156575E-1,3.520108163E-1
5.893771000E-1,7.799215913E-1,-3.199404180E-1,3.787361681E-1
6.088388710E-1,8.436042666E-1,-2.557996213E-1,3.962985277E-1
6.283007460E-1,8.295543790E-1,-2.052505612E-1,3.949240744E-1
6.477626210E-1,7.620537877E-1,-1.794415265E-1,3.743073940E-1
6.672244960E-1,6.931788325E-1,-1.797469556E-1,3.316995800E-1
6.866862670E-1,6.342303753E-1,-1.850920320E-1,2.765690386E-1
7.061481420E-1,5.702422857E-1,-1.818849891E-1,2.235765159E-1
7.256100170E-1,4.960221946E-1,-1.647807807E-1,1.742491722E-1
7.450718920E-1,4.040870368E-1,-1.238528341E-1,1.218675226E-1
7.645336630E-1,2.900080681E-1,-5.283980444E-2,6.246092543E-2
7.839955380E-1,1.676823795E-1,2.153298259E-2,2.290742937E-3
8.034574130E-1,6.414080411E-2,8.826996386E-2,-5.283980444E-2
8.229192880E-1,-1.695149764E-2,1.108719558E-1,-8.414662629E-2
8.423810590E-1,-9.957095981E-2,9.819651395E-2,-1.153007299E-1
8.618429340E-1,-1.548542231E-1,8.414662629E-2,-1.414151937E-1
8.813048090E-1,-1.690568328E-1,8.582650125E-2,-1.559232324E-1
9.007666840E-1,-1.499672979E-1,1.162170246E-1,-1.612683088E-1
9.202284540E-1,-1.145371497E-1,1.641699076E-1,-1.586721241E-1
9.396903290E-1,-8.857539296E-2,2.044869810E-1,-1.644753367E-1
9.591522040E-1,-7.803797722E-2,2.205221802E-1,-1.835648715E-1
9.786139750E-1,-7.177661359E-2,2.124282271E-1,-1.974620372E-1
9.980758500E-1,-6.765327603E-2,2.052505612E-1,-2.057087123E-1
1.017537725E0,-6.322450191E-2,2.159406990E-1,-2.153298408E-1
1.036999600E0,-5.345066637E-2,2.325867712E-1,-2.342666388E-1
1.056461371E0,-4.413498193E-2,2.457203567E-1,-2.654207349E-1
1.075923246E0,-4.932733253E-2,2.454149276E-1,-3.133736253E-1
1.095385121E0,-6.688969582E-2,2.246455252E-1,-3.538434207E-1
1.114846996E0,-8.399390429E-2,1.834121495E-1,-3.790415823E-1
1.134308767E0,-9.560033679E-2,1.388190240E-1,-3.924806118E-1
1.153770642E0,-1.105665267E-1,9.682206810E-2,-4.008800089E-1
1.173232517E0,-1.154534444E-1,5.283980444E-2,-3.982838392E-1
1.192694392E0,-1.385135949E-1,4.841103405E-2,-3.935496211E-1
1.212156163E0,-1.939495653E-1,5.971203372E-2,-3.781253099E-1
1.231618038E0,-2.507599890E-1,5.925388262E-2,-3.167333901E-1
1.251079913E0,-3.229947388E-1,5.513054505E-2,-2.411388755E-1
1.270541684E0,-3.785834610E-1,7.024945319E-2,-1.704312712E-1
1.290003559E0,-3.950767815E-1,1.026252806E-1,-1.055268943E-1
1.309465434E0,-4.079049528E-1,1.707367003E-1,-4.749473557E-2
1.328927309E0,-4.069886506E-1,1.953240186E-1,2.764163166E-2
1.348389079E0,-4.130973220E-1,1.221729591E-1,7.651081681E-2
1.367850954E0,-4.182896614E-1,-2.199113183E-2,3.023780696E-2
1.387312829E0,-4.034761786E-1,-1.685986817E-1,-4.718930274E-2
1.406774600E0,-3.651444316E-1,-2.109010667E-1,-8.750637621E-2
1.426236475E0,-3.416261375E-1,-1.820377111E-1,-1.010981202E-1
1.445698350E0,-3.602575064E-1,-1.220202371E-1,-1.024725661E-1
1.465160225E0,-4.407389462E-1,-6.261363626E-2,-1.156061590E-1
1.484621996E0,-5.400044918E-1,-3.787361458E-2,-1.449276656E-1
1.504083871E0,-5.968148708E-1,-5.238165334E-2,-1.563813835E-1
1.523545746E0,-6.172788739E-1,-7.712167501E-2,-1.423314959E-1
1.543007517E0,-6.319395900E-1,-8.903354406E-2,-1.343902498E-1
1.562469392E0,-6.400335431E-1,-9.560033679E-2,-1.490510106E-1
1.581931267E0,-6.644681692E-1,-1.160643101E-1,-1.837175786E-1
1.601393142E0,-7.105884552E-1,-1.423314959E-1,-2.173151523E-1
1.620854913E0,-7.652608752E-1,-1.287397593E-1,-2.215912044E-1
1.640316788E0,-8.045089245E-1,-8.384118974E-2,-1.904370934E-1
1.659778663E0,-8.382592201E-1,-7.452550530E-2,-1.576031148E-1
1.679240538E0,-8.181006312E-1,-1.209512278E-1,-1.211039424E-1
1.698702309E0,-7.418952584E-1,-2.054032832E-1,-8.048143238E-2
1.718164184E0,-6.093376279E-1,-2.887863219E-1,-2.428187430E-2
1.737626059E0,-4.882336855E-1,-3.075704277E-1,2.886336111E-2
1.757087829E0,-4.308123887E-1,-2.484692484E-1,8.292489499E-2
1.776549704E0,-3.530798554E-1,-3.992001414E-1,1.027780026E-1
1.796011579E0,-1.458439678E-1,-6.403390169E-1,1.606574357E-1
1.815473350E0,-3.278816640E-1,-1.235474050E-1,1.392771751E-1
1.834935225E0,-4.766272306E-1,3.584249020E-1,2.580903657E-2
1.854397100E0,-3.587303460E-1,1.655443609E-1,3.558287397E-2
1.873858975E0,-1.614210159E-1,-4.184423760E-2,7.162389904E-2
1.893320746E0,-1.226311028E-1,-8.643736690E-2,4.657844082E-2
1.912782621E0,-1.275180280E-1,-1.237001177E-2,-2.458730713E-2
1.932244496E0,-3.665188700E-2,9.361502528E-2,-8.888082206E-2
1.951706267E0,1.240055487E-1,9.636391699E-2,-1.156061590E-1
1.971168142E0,2.438877672E-1,1.191186346E-2,-1.110246703E-1
1.990630017E0,2.959639728E-1,-5.986474827E-2,-7.040216774E-2
2.010091892E0,2.927569449E-1,-7.406735420E-2,-1.954767294E-2
2.029553663E0,2.290742993E-1,-1.817322709E-2,6.719512399E-3
2.049015538E0,1.261435747E-1,5.726857483E-2,6.872228812E-3
2.068477413E0,3.955349326E-2,7.223475724E-2,-3.207040019E-3
2.087939184E0,-2.260199748E-2,2.351829410E-2,6.108647794E-4
2.107401059E0,-8.826996386E-2,-4.260781780E-2,7.330377586E-3
2.126862934E0,-1.608101577E-1,-6.566796452E-2,2.641990222E-2
2.146324809E0,-2.052505612E-1,-4.596757516E-2,4.764745384E-2
2.165786579E0,-1.875354946E-1,-2.336557768E-2,5.787943676E-2
2.185248454E0,-1.229365394E-1,-4.291325063E-2,6.627883017E-2
2.204710329E0,-5.849030241E-2,-9.804379940E-2,7.742711157E-2
2.224172100E0,-2.535088919E-2,-1.345429718E-1,9.712749720E-2
2.243633975E0,-2.947422490E-2,-1.238528341E-1,1.171333194E-1
2.263095850E0,-5.971203372E-2,-8.643736690E-2,1.337793916E-1
2.282557621E0,-8.017600328E-2,-4.398226365E-2,1.547015011E-1
2.302019496E0,-6.490438432E-2,9.315688163E-3,1.870773435E-1
2.321481371E0,-5.497782957E-3,5.787943676E-2,2.356410921E-1
2.340943246E0,8.017600328E-2,7.345648855E-2,2.877173126E-1
2.360405017E0,1.586721241E-1,8.093958721E-3,3.022253513E-1
2.379866892E0,1.369864196E-1,-8.628465235E-2,2.496909797E-1
2.399328767E0,1.634063199E-2,-3.711003438E-2,1.788306683E-1
2.418790538E0,-9.269873053E-2,8.093958348E-2,1.374445707E-1
2.438252413E0,-1.369864196E-1,1.612683088E-1,1.421787739E-1
2.457714288E0,-7.528908551E-2,1.270598769E-1,1.867718995E-1
2.477176059E0,5.009091273E-2,-3.207040019E-3,2.420551628E-1
2.496637934E0,1.803578287E-1,-1.379027218E-1,2.742782831E-1
2.516099809E0,2.663370371E-1,-2.183841616E-1,2.722929716E-1
2.535561579E0,3.193295598E-1,-2.179260105E-1,2.576322258E-1
2.555023454E0,3.688096106E-1,-1.750127524E-1,2.649625838E-1
2.574485329E0,4.282162189E-1,-1.521053314E-1,2.950477004E-1
2.593947204E0,4.983129501E-1,-1.685986817E-1,3.216203153E-1
2.613408975E0,5.572614074E-1,-1.944077164E-1,3.103193045E-1
2.632870850E0,5.528326035E-1,-2.258672565E-1,2.638935745E-1
2.652332725E0,4.631882310E-1,-2.411388755E-1,1.963930279E-1
2.671794496E0,3.347539008E-1,-2.160934210E-1,1.362228394E-1
2.691256371E0,2.260199636E-1,-1.824958473E-1,1.204930767E-1
2.710718246E0,1.603520066E-1,-1.786779463E-1,1.356119812E-1
2.730180017E0,1.333212405E-1,-1.496618688E-1,1.291978955E-1
2.749641892E0,1.568395346E-1,-9.407317638E-2,1.012508348E-1
2.769103767E0,2.040288299E-1,-3.481929377E-2,7.208204269E-2
2.788565538E0,2.474002391E-1,2.138026757E-3,4.993819445E-2
2.808027413E0,2.855792940E-1,-1.145371422E-2,4.016435891E-2
2.827489288E0,2.985601723E-1,-5.329795182E-2,3.359756246E-2
2.846951059E0,2.756527364E-1,-8.704823256E-2,3.008509055E-2
2.866412934E0,2.173151523E-1,-1.203403622E-1,2.138026804E-2
2.885874809E0,1.580612659E-1,-1.404989064E-1,1.130099874E-2
2.905336579E0,1.278234571E-1,-1.382081509E-1,4.581485875E-3
2.924798454E0,1.065959036E-1,-1.123991162E-1,-2.290742937E-3
2.944260329E0,1.015562713E-1,-9.392046183E-2,-6.108647678E-3
2.963722100E0,1.168278903E-1,-9.178243577E-2,2.138026757E-3
2.983183975E0,1.259908676E-1,-7.925970852E-2,1.298087649E-2
3.002645850E0,1.105665267E-1,-5.054906011E-2,4.886918236E-3
3.022107621E0,6.948586553E-2,-3.039052337E-2,-2.122755162E-2
3.041569496E0,2.275471389E-2,-1.359174121E-2,-6.078104675E-2
3.061031371E0,-8.704823442E-3,-9.162971750E-3,-9.789107740E-2
3.080493142E0,-2.428187430E-2,-2.535088919E-2,-1.305723488E-1
3.099955017E0,-4.856374860E-2,-4.505127668E-2,-1.679878086E-1
3.119416892E0,-6.520981342E-2,-6.459894776E-2,-1.965457499E-1
3.138878663E0,-5.803215504E-2,-9.178243577E-2,-1.986837685E-1
3.158340538E0,-5.406153202E-2,-1.090393662E-1,-1.889099330E-1
3.177802413E0,-7.651081681E-2,-8.659008145E-2,-1.858556122E-1
3.197264184E0,-1.168278903E-1,-3.970621154E-2,-1.916588247E-1
3.216726059E0,-1.510363221E-1,-1.160643063E-2,-2.041815519E-1
3.236187934E0,-1.516471803E-1,-1.756236330E-2,-2.121227980E-1
3.255649704E0,-1.290451884E-1,-5.635227636E-2,-2.251036763E-1
3.275111579E0,-8.139773458E-2,-9.834922850E-2,-2.295324355E-1
3.294573454E0,2.443459118E-3,-8.521563560E-2,-1.980729103E-1
3.314035329E0,7.315105945E-2,-2.214384824E-2,-1.411097646E-1
3.333497100E0,9.758564830E-2,4.321868345E-2,-1.041524485E-1
3.352958975E0,7.513637096E-2,8.048143238E-2,-9.682206810E-2
3.372420746E0,2.748891478E-3,8.124501258E-2,-1.203403622E-1
3.391882621E0,-9.086613357E-2,6.429351866E-2,-1.640172005E-1
3.411344496E0,-1.857028902E-1,5.604684353E-2,-1.912006736E-1
3.430806371E0,-2.622137070E-1,7.696896046E-2,-1.824958473E-1
3.450268142E0,-3.236056268E-1,1.117882580E-1,-1.748600453E-1
3.469730017E0,-3.891208768E-1,1.298087686E-1,-1.890626550E-1
3.489191892E0,-4.630354941E-1,9.743293375E-2,-2.122755051E-1
3.508653663E0,-5.734493136E-1,3.527744114E-2,-2.196058929E-1
3.528115538E0,-7.351757884E-1,1.802051067E-2,-1.988364905E-1
3.547577309E0,-8.727730513E-1,7.177661359E-2,-1.766926348E-1
3.567039184E0,-8.555161357E-1,1.272125840E-1,-1.408043355E-1
3.586501059E0,-6.998983026E-1,1.069013327E-1,-1.067486182E-1
3.605962829E0,-5.427533388E-1,3.772090003E-2,-6.459894776E-2
3.625424704E0,-4.402807951E-1,1.175914705E-2,-3.726275265E-2
3.644886579E0,-3.996582925E-1,7.803797722E-2,-4.153880477E-2
3.664348350E0,-3.767508566E-1,1.617264450E-1,-4.046979174E-2
3.683810225E0,-3.469711840E-1,1.910479665E-1,-2.000582218E-2
3.703272100E0,-3.251327872E-1,1.571449637E-1,9.315688163E-3
3.722733871E0,-3.013090491E-1,4.841103405E-2,2.336557768E-2
3.742195746E0,-2.680169344E-1,-7.712167501E-2,4.123337194E-2
3.761657621E0,-2.403752953E-1,-1.247691289E-1,6.612611562E-2
3.781119392E0,-2.124282271E-1,-8.643736690E-2,9.453132749E-2
3.800581267E0,-1.792888194E-1,-1.832594397E-3,1.284343153E-1
3.820043142E0,-1.262962967E-1,8.949168772E-2,1.608101577E-1
3.839504913E0,-5.879573524E-2,1.282816082E-1,1.912006736E-1
3.858966788E0,-9.162971750E-3,1.218675226E-1,2.131918073E-1
3.878428663E0,3.207040206E-2,8.613193035E-2,2.142608166E-1
3.897890434E0,8.338304609E-2,3.970621154E-2,2.061668634E-1
3.917352309E0,1.379027218E-1,5.039634649E-3,2.070831656E-1
3.936814079E0,1.740964651E-1,-2.916879393E-2,1.944077164E-1
3.956275954E0,1.861610413E-1,-9.162971750E-3,1.614210159E-1
3.975737829E0,2.151771188E-1,4.688387364E-2,1.522580534E-1
3.995199600E0,2.483165264E-1,7.391463965E-2,1.519526094E-1
4.014661475E0,2.603811026E-1,9.346231073E-2,1.400407553E-1
4.034123350E0,2.672533393E-1,1.163697392E-1,1.281288862E-1
4.053585121E0,2.993237376E-1,1.110246703E-1,1.075121984E-1
4.073046996E0,3.689623177E-1,1.062904745E-1,9.392046183E-2
4.092508871E0,4.616610706E-1,9.147699922E-2,8.124501258E-2
4.111970642E0,5.587885380E-1,7.238747925E-2,6.261363626E-2
4.131432517E0,6.301070452E-1,6.688969582E-2,4.489856213E-2
4.150894392E0,6.397281289E-1,3.405570984E-2,4.688387364E-2
4.170356163E0,5.829176903E-1,-1.893680729E-2,6.444623321E-2
4.189818038E0,5.062541962E-1,-4.535670951E-2,7.131846249E-2
4.209279809E0,4.688387215E-1,-2.351829410E-2,7.712167501E-2
4.228741684E0,4.564687014E-1,3.848448023E-2,8.368847519E-2
4.248203559E0,4.303542376E-1,9.269873053E-2,8.414662629E-2
4.267665329E0,4.031707644E-1,8.597921580E-2,9.712749720E-2
4.287127204E0,3.753764033E-1,1.557705179E-2,1.223256737E-1
4.306589079E0,3.170388341E-1,-4.825831577E-2,1.441640854E-1
4.326050850E0,2.441931963E-1,-5.299251899E-2,1.453858167E-1
4.345512725E0,1.927278340E-1,-3.512472380E-3,1.388190240E-1
4.364974600E0,1.786779463E-1,4.612028971E-2,1.531743407E-1
4.384436371E0,1.855501831E-1,7.605266571E-2,1.731801629E-1
4.403898246E0,1.869246215E-1,9.269873053E-2,1.663079411E-1
4.423360121E0,1.798996776E-1,9.560033679E-2,1.237001196E-1
4.442821892E0,1.624900252E-1,8.796452731E-2,6.505709887E-2
4.462283767E0,1.368337125E-1,7.803797722E-2,1.374445762E-2
4.481745538E0,1.140789986E-1,7.452550530E-2,-1.725693047E-2
4.501207413E0,9.819651395E-2,7.070759684E-2,-4.123337194E-2
4.520669288E0,7.910698652E-2,7.391463965E-2,-6.337722391E-2
4.540131059E0,5.161807314E-2,8.368847519E-2,-8.414662629E-2
4.559592934E0,1.481347065E-2,9.972367436E-2,-1.059850380E-1
4.579054809E0,-3.497200832E-2,1.276707351E-1,-1.134681329E-1
4.598516579E0,-8.277218044E-2,1.496618688E-1,-9.636391699E-2
4.617978454E0,-1.143844277E-1,1.711948514E-1,-9.269873053E-2
4.637440329E0,-1.408043355E-1,1.902843714E-1,-1.217148080E-1
4.656902100E0,-1.658497900E-1,2.054032832E-1,-1.591302752E-1
4.676363975E0,-1.794415265E-1,2.092211843E-1,-1.708894223E-1
4.695825746E0,-1.818849891E-1,1.992946416E-1,-1.673769504E-1
4.715287621E0,-1.718057245E-1,1.765399277E-1,-1.663079411E-1
4.734749496E0,-1.524107605E-1,1.643226296E-1,-1.652389169E-1
4.754211267E0,-1.203403622E-1,1.679878086E-1,-1.560759544E-1
4.773673142E0,-1.014035568E-1,1.737910360E-1,-1.298087686E-1
4.793135017E0,-1.116355360E-1,1.762344837E-1,-1.076649204E-1
4.812596788E0,-1.211039424E-1,1.537852138E-1,-9.224057943E-2
4.832058663E0,-1.319467872E-1,1.041524485E-1,-7.284562290E-2
4.851520434E0,-1.609628648E-1,5.696314201E-2,-6.750056148E-2
4.870982309E0,-1.898262352E-1,2.321286127E-2,-6.948586553E-2
4.890444184E0,-2.021962404E-1,1.237001177E-2,-6.429351866E-2
4.909905954E0,-1.947131455E-1,1.572976820E-2,-5.115992576E-2
4.929367829E0,-1.721111536E-1,1.664606482E-2,-3.924806044E-2
4.948829704E0,-1.408043355E-1,9.010255337E-3,-3.252854943E-2
4.968291475E0,-9.789107740E-2,-9.926552884E-3,-2.290742844E-2
4.987753350E0,-6.551524997E-2,-2.748891525E-2,-1.404988952E-2
5.007215121E0,-4.657844082E-2,-3.695731983E-2,-1.298087649E-2
5.026676996E0,-3.161225095E-2,-3.817904741E-2,-1.328630932E-2
5.046138871E0,-1.496618707E-2,-4.352411628E-2,-8.704823442E-3
5.065600642E0,3.054323897E-4,-5.558869615E-2,-4.581485991E-4
5.085062517E0,1.099556591E-2,-6.414080411E-2,2.901607659E-3
5.104524288E0,2.596175298E-2,-8.017600328E-2,6.108647794E-4
5.123986163E0,4.993819445E-2,-9.636391699E-2,-1.221729559E-3
5.143448038E0,6.001746282E-2,-9.407317638E-2,-5.955931731E-3
5.162909809E0,5.390881747E-2,-7.345648855E-2,-8.246674202E-3
5.182371684E0,6.108647957E-2,-5.253437161E-2,-6.108647678E-3
5.201833454E0,7.086031139E-2,-4.337139800E-2,-7.177661173E-3
5.221295329E0,5.696314201E-2,-5.879573524E-2,-1.893680729E-2
5.240757204E0,3.680460155E-2,-9.636391699E-2,-2.641990222E-2
5.260218975E0,2.443459071E-2,-1.238528341E-1,-2.397644334E-2
5.279680850E0,2.901607752E-2,-1.531743407E-1,-1.496618707E-2
5.299142621E0,5.955931544E-2,-2.247982323E-1,3.512472380E-3
5.318604496E0,1.062904745E-1,-3.297142684E-1,3.023780696E-2
5.338066371E0,1.499672979E-1,-4.404335022E-1,5.864302069E-2
5.357528142E0,1.669187993E-1,-5.629118681E-1,8.277218044E-2
5.376990017E0,1.249218509E-1,-6.510291100E-1,9.850194305E-2
5.396451788E0,3.726275265E-2,-6.461422443E-1,1.189659163E-1
5.415913663E0,-3.772090003E-2,-5.028944016E-1,1.597411335E-1
5.435375538E0,-4.612028971E-2,-2.854265571E-1,2.037234008E-1
5.454837309E0,1.878409274E-2,-1.847866029E-1,2.194531709E-1
5.474299184E0,9.651663154E-2,-2.371682525E-1,1.982256174E-1
5.493760954E0,1.117882580E-1,-3.549124300E-1,1.902843714E-1
5.513222829E0,2.901607659E-3,-4.265363216E-1,2.391535640E-1
5.532684600E0,-2.229656428E-1,-3.390299380E-1,2.513708472E-1
5.552146475E0,-3.440696001E-1,-1.589775532E-1,1.858556122E-1
5.571608350E0,-2.759581506E-1,4.795288667E-2,1.354592592E-1
5.591070121E0,-3.069595397E-1,3.011563420E-1,8.552107215E-2
5.610531996E0,-4.210385382E-1,5.511527658E-1,-3.665188793E-3
5.629993767E0,-3.197877109E-1,8.188642263E-1,-1.056796089E-1
5.649455642E0,-5.589412898E-2,8.226821423E-1,-1.153007299E-1
5.668917517E0,1.426369250E-1,6.394227147E-1,-1.117882580E-1
5.688379288E0,2.145662606E-1,3.985892832E-1,-1.247691289E-1
5.707841163E0,2.440404743E-1,1.931859851E-1,-1.249218509E-1
5.727302934E0,2.771798968E-1,1.896735132E-1,-1.001818255E-1
5.746764809E0,2.431241870E-1,2.945895493E-1,-7.544180006E-2
5.766226579E0,8.659008145E-2,4.416552484E-1,-9.392046183E-2
5.785688454E0,-1.004872546E-1,5.545125008E-1,-1.414151937E-1
5.805150329E0,-1.898262352E-1,5.245801210E-1,-2.222020626E-1
5.824612100E0,-1.542433500E-1,3.608683646E-1,-3.080285788E-1
5.844073975E0,-6.261364091E-3,2.095266134E-1,-2.892444730E-1
5.863535746E0,1.084285006E-1,2.208276242E-1,-1.849393100E-1
5.882997621E0,4.367683083E-2,3.129154742E-1,-1.505781710E-1
5.902459392E0,-1.980729103E-1,3.352120519E-1,-1.797469556E-1
5.921921267E0,-4.010327160E-1,2.759581506E-1,-1.835648715E-1
5.941383038E0,-4.624246359E-1,2.057087123E-1,-1.473711282E-1
5.960844913E0,-4.648680985E-1,1.624900252E-1,-8.445205539E-2
5.980306684E0,-4.039343297E-1,1.435532272E-1,-1.603520103E-2
5.999768559E0,-4.581485987E-1,5.482511222E-2,-5.955931544E-2
6.019230329E0,-5.597048402E-1,-1.853974611E-1,-1.108719558E-1
6.038692204E0,-7.906117439E-1,-4.905244112E-1,-8.903354406E-2
6.058154079E0,-7.089085579E-1,-9.040798545E-1,-3.313941509E-2
6.077615850E0,-2.871064469E-2,-1.132390618E0,6.887500733E-2
6.097077725E0,2.218966335E-1,7.363975048E-1,1.398880333E-1
6.116539496E0,5.716167092E-1,9.069814682E-1,1.679878086E-1
6.136001371E0,9.237802625E-1,5.276344419E-1,2.544251680E-1
6.155463142E0,6.724094152E-1,2.837466896E-1,2.758054435E-1
6.174925017E0,2.371682525E-1,1.168278903E-1,3.127627671E-1
6.194386788E0,-1.094975099E-1,1.266017258E-1,2.481638193E-1
6.213848663E0,-4.897608459E-1,2.611446977E-1,-1.664606482E-2
6.233310538E0,-6.696605086E-1,2.596175373E-1,-1.481347084E-1
6.252772309E0,-3.874409795E-1,3.121519089E-1,-5.146535859E-2
6.272234184E0,-4.978547990E-2,-1.359174121E-2,8.597921580E-2
6.291695954E0,9.498947114E-2,-3.126100600E-1,1.087339297E-1
6.311157829E0,3.436114267E-2,-2.719875574E-1,-5.207622424E-2
6.330619600E0,-1.304196268E-1,-6.123919412E-2,-2.606865466E-1
6.350081475E0,-1.815795600E-1,1.122464016E-1,-3.559814394E-1
6.369543246E0,-1.664606482E-1,1.879936308E-1,-3.257436454E-1
6.389005121E0,-1.592829973E-1,2.474002391E-1,-2.060141414E-1
6.408466892E0,-3.909534588E-2,6.490438432E-2,-9.010255337E-3
6.427928767E0,2.034179717E-1,-5.765036345E-1,1.539379209E-1
6.447390642E0,3.185659945E-1,-1.699425817E0,-3.802633286E-2
6.466852413E0,-1.878409237E-1,-1.002581835E0,1.288924664E-1
6.486314288E0,9.666935354E-2,5.728384256E-1,3.388772309E-1
6.505776059E0,3.271180987E-1,1.692553639E0,7.794634700E-1
6.525237934E0,-1.985310577E-3,1.125671029E0,3.419315517E-1
6.544699704E0,3.402516842E-1,2.593120933E-1,-6.414080411E-2
6.564161579E0,1.111163020E0,-1.505781710E-1,-5.696314201E-2
6.583623350E0,1.321605921E0,-2.037234008E-1,-2.748891525E-2
6.603085225E0,1.018464327E0,1.117882580E-1,-4.230238497E-2
6.622546996E0,6.302597523E-1,3.388772309E-1,-1.153007299E-1
6.642008871E0,4.763218164E-1,3.352120519E-1,-2.101374865E-1
6.661470746E0,4.470002949E-1,2.777907550E-1,-2.186895907E-1
6.680932517E0,1.881463528E-1,4.871646687E-2,-6.918043643E-2
6.700394392E0,-2.295324355E-1,4.841103405E-2,-7.330377586E-3
6.719856163E0,-4.335612655E-1,1.684459597E-1,-3.878991306E-2
6.739318038E0,-4.604393244E-1,2.590066791E-1,-1.056796089E-1
6.758779809E0,-4.465421438E-1,3.045161068E-1,-1.631008983E-1
6.778241684E0,-4.604393244E-1,2.034179717E-1,-1.492037177E-1
6.797703454E0,-5.091558099E-1,2.260199748E-2,-4.505127668E-2
6.817165329E0,-5.122101307E-1,-2.046397030E-1,1.175914705E-1
6.836627100E0,-5.633700490E-1,-4.676169753E-1,1.496618688E-1
6.856088975E0,-7.819069028E-1,-6.568323374E-1,4.902189970E-2
6.875550746E0,-9.975422025E-1,-8.051197529E-1,-3.405570984E-2
6.895012621E0,-1.041829824E0,-1.269376993E0,-1.835648715E-1
6.914474392E0,-1.375972927E-1,-1.473405838E0,1.291978955E-1
6.933936267E0,-1.221729559E-3,7.600684762E-1,2.715294063E-1
6.953398038E0,2.883281708E-1,7.400626540E-1,2.342666388E-1
6.972859913E0,6.514872909E-1,1.310304999E-1,1.684459597E-1
6.992321684E0,6.707295179E-1,-1.304196268E-1,1.368337125E-1
7.011783559E0,4.992292523E-1,8.093958721E-3,1.424842030E-1
7.031245329E0,2.342666388E-1,1.849393100E-1,7.192932814E-2
7.050707204E0,1.009454057E-1,3.549124300E-1,-3.573558852E-2
7.070168975E0,1.247691289E-1,4.033234715E-1,-5.207622424E-2
7.089630850E0,4.444041103E-2,2.959639728E-1,1.404988952E-2
7.109092621E0,-1.983783394E-1,1.534797698E-1,3.008509055E-2
7.128554496E0,-3.248273432E-1,9.392046183E-2,7.941242307E-2
7.148016267E0,-3.052796721E-1,1.472184062E-1,1.556178033E-1
7.167478142E0,-1.808159798E-1,1.308777779E-1,2.189950198E-1
7.186939913E0,-1.221729536E-2,1.609628648E-1,2.196058929E-1
7.206401788E0,5.696314201E-2,1.730274558E-1,1.708894223E-1
7.225863663E0,-1.237001177E-2,1.186604798E-1,7.223475724E-2
7.245325434E0,-2.345720828E-1,-2.429714650E-1,-9.239330143E-2
7.264787204E0,-6.962331533E-1,-8.733839393E-1,-3.165806830E-1
7.284249079E0,-7.867938280E-1,-2.828762054E0,-6.924152374E-1
7.303710954E0,-3.107774556E-1,-2.549749613E0,6.368265301E-2
7.323172725E0,1.159115955E-1,2.170555353E0,3.193295598E-1
7.342634600E0,5.265654325E-1,2.208887100E0,3.568977416E-1
7.362096371E0,9.240856767E-1,5.424479246E-1,1.380554438E-1
7.381558246E0,7.321214676E-1,-4.427242577E-1,-1.759290546E-1
7.401020017E0,7.157807946E-1,-5.021308661E-1,-1.740964688E-2
7.420481892E0,6.834049821E-1,-2.373209596E-1,4.902189970E-2
7.439943663E0,4.375318885E-1,9.926552325E-2,-8.857538924E-3
7.459405538E0,8.491020650E-2,6.536252797E-2,-1.221729591E-1
7.478867309E0,-4.825831577E-2,-1.908952370E-2,-3.301724195E-1
7.498329184E0,4.092793912E-2,-2.561050653E-1,-3.758345544E-1
7.517790954E0,4.902189970E-2,-1.774562150E-1,-2.089157552E-1
7.537252829E0,-8.307760954E-2,2.079994529E-1,-7.925970852E-2
7.556714600E0,-1.766926348E-1,4.709767401E-1,-7.406735420E-2
7.576176475E0,-2.006690800E-1,4.949531853E-1,-1.647807807E-1
7.595638246E0,-2.246455252E-1,3.035998046E-1,-2.692386508E-1
7.615100121E0,-2.751945853E-1,1.250745654E-1,-3.364337683E-1
7.634561892E0,-3.271180987E-1,-2.748891478E-3,-2.996291816E-1
7.654023767E0,-4.146244824E-1,-1.353065521E-1,-1.655443609E-1
7.673485538E0,-5.568032265E-1,-4.169152081E-1,-1.180496216E-1
7.692947413E0,-8.116865754E-1,-9.295834899E-1,-1.093447953E-1
7.712409184E0,-9.947932959E-1,-1.327867270E0,-2.304487377E-1
7.731871059E0,-2.225074917E-1,-1.288008332E0,-1.846338809E-1
7.751332829E0,6.076577306E-1,4.156934917E-1,2.942841053E-1
7.770794600E0,2.477056682E-1,1.264184713E0,1.047633067E-1
7.790256475E0,5.923861265E-1,6.707295179E-1,9.529490769E-2
7.809718246E0,6.702713966E-1,2.414443046E-1,1.777616441E-1
7.829180121E0,4.329504073E-1,2.254091054E-1,3.139844835E-1
7.848641892E0,2.058614343E-1,4.118755758E-1,3.683514595E-1
7.868103767E0,7.055488229E-2,5.485565662E-1,2.622137070E-1
7.887565538E0,6.337722391E-2,5.711585879E-1,1.029307172E-1
7.907027413E0,1.579085439E-1,4.940368831E-1,7.605266571E-2
7.926489184E0,1.397353113E-1,2.687804997E-1,1.281288862E-1
7.945951059E0,1.450803876E-2,-6.261363626E-2,9.621120244E-2
7.965412829E0,-9.636391699E-2,-2.530507445E-1,1.725693047E-2
7.984874704E0,-1.679878086E-1,-2.086103261E-1,1.206457894E-2
8.004336475E0,-1.782197952E-1,-3.527744114E-2,5.039634556E-2
8.023798350E0,-1.744018942E-1,2.247982323E-1,2.916879393E-2
8.043260121E0,-1.731801629E-1,3.539961278E-1,-7.040216774E-2
8.062721892E0,-1.026252806E-1,2.107483447E-1,-8.903354406E-2
8.082183767E0,-1.316413581E-1,-1.443168074E-1,-4.520399496E-2
8.101645538E0,-3.565923274E-1,-6.685914993E-1,-2.138026757E-3
8.121107413E0,-2.745837271E-1,-1.760665059E0,-3.187187016E-1
8.140569184E0,2.915352285E-1,-2.413832188E0,-8.414662629E-2
8.160031059E0,-9.682206810E-2,6.233875155E-1,4.702131748E-1
8.179492829E0,1.461493969E-1,2.029751062E0,2.567159235E-1
8.198954704E0,7.327322960E-1,1.051298261E0,2.874118686E-1
8.218416475E0,6.575959325E-1,-9.101885557E-2,5.238165334E-2
8.237878350E0,4.176788032E-1,-6.288852692E-1,-7.895427197E-2
8.257340121E0,4.696022868E-1,-4.847212136E-1,-6.398808211E-2
8.276801996E0,4.860956371E-1,-9.773836471E-3,-9.804379940E-2
8.296263767E0,2.214384824E-1,2.952004075E-1,-1.145371497E-1
8.315725642E0,-3.756818548E-2,2.350302190E-1,-1.524107605E-1
8.335187413E0,-5.360338464E-2,4.428769648E-2,-2.005163580E-1
8.354649184E0,-2.183841541E-2,-1.895207912E-1,-1.566868126E-1
8.374111059E0,-8.445205539E-2,-5.635227636E-2,-7.513637096E-2
8.393572829E0,-1.108719558E-1,1.963930279E-1,-3.313941509E-2
8.413034704E0,-9.010255337E-2,3.022253513E-1,-4.978547990E-2
8.432496475E0,-1.264490038E-1,2.872591615E-1,-1.313359290E-1
8.451958350E0,-2.626718581E-1,2.727511227E-1,-2.044869810E-1
8.471420121E0,-4.201222658E-1,1.505781710E-1,-2.139553875E-1
8.490881892E0,-4.075995386E-1,-1.327103674E-1,-1.927278340E-1
8.510343767E0,-4.034761786E-1,-4.789179862E-1,-2.318231910E-1
8.529805538E0,-4.735729098E-1,-7.747292519E-1,-1.707367003E-1
8.549267413E0,-6.861538887E-1,-8.625410795E-1,-8.139773458E-2
8.568729184E0,-7.794634700E-1,-7.252492309E-1,-2.916879356E-1
8.588191059E0,1.009454057E-1,-6.782126427E-1,-5.772672221E-2
8.607652829E0,2.897026241E-1,7.545707226E-1,-6.307178736E-2
8.627114704E0,4.778489769E-1,6.571378112E-1,-9.071341902E-2
8.646576475E0,9.150754213E-1,1.261435747E-1,7.864884287E-2
8.666038246E0,7.896954417E-1,-9.162971377E-2,3.080285788E-1
8.685500121E0,4.051560760E-1,5.681042373E-2,4.214966893E-1
8.704961892E0,9.773836285E-2,3.239110410E-1,3.252854943E-1
8.724423767E0,-7.024944760E-3,4.957167804E-1,9.422589093E-2
8.743885538E0,1.249218509E-1,5.143481493E-1,-5.864302069E-2
8.763347413E0,1.907425225E-1,4.311178327E-1,-5.772672221E-2
8.782809184E0,-8.491020650E-2,3.049742281E-1,-3.359756246E-2
8.802270954E0,-3.604102135E-1,1.603520066E-1,-8.063415438E-2
8.821732829E0,-3.895790279E-1,1.065959036E-1,-1.360701323E-1
8.841194600E0,-2.948949635E-1,1.388190240E-1,-1.241582632E-1
8.860656475E0,-1.910479665E-1,1.707367003E-1,-5.177079141E-2
8.880118246E0,-9.941824526E-2,2.292270064E-1,3.817904973E-3
8.899580121E0,-1.308777779E-1,2.707658112E-1,4.444041103E-2
8.919041892E0,-2.820668221E-1,1.762344837E-1,2.916879393E-2
8.938503663E0,-4.361574650E-1,-1.979201883E-1,3.481929377E-2
8.957965538E0,-5.948295593E-1,-1.052825451E0,-6.215549260E-2
8.977427309E0,5.757400393E-2,-3.058752775E0,-5.424479246E-1
8.996889184E0,-3.260490894E-1,-1.390328288E0,7.560978532E-1
9.016350954E0,1.343902480E-2,2.786612511E0,3.871355653E-1
9.035812829E0,8.379537463E-1,2.185521364E0,6.214022040E-1
9.055274600E0,6.603448391E-1,4.505127668E-1,2.712239623E-1
9.074736371E0,-1.359174103E-1,-5.381718874E-1,-2.522871494E-1
9.094198246E0,-3.512472659E-2,-6.097957492E-1,-2.050978541E-1
9.113660017E0,4.352411628E-1,-8.323032409E-2,-5.100720748E-2
9.133121892E0,6.653844714E-1,3.515526950E-1,7.635809598E-4
9.152583663E0,5.888736248E-1,2.958112657E-1,-9.468404204E-2
9.172045434E0,3.903425932E-1,1.438586563E-1,-1.514944583E-1
9.191507309E0,2.049451321E-1,5.085449293E-2,-6.994401664E-2
9.210969079E0,-8.994983882E-2,1.759290546E-1,2.092211880E-2
9.230430954E0,-3.388772309E-1,2.948949635E-1,-2.382372692E-2
9.249892725E0,-4.340194166E-1,2.583957911E-1,-9.453132749E-2
9.269354600E0,-5.319104791E-1,9.666935354E-2,-1.750127524E-1
9.288816371E0,-6.249146461E-1,-4.398226365E-2,-2.565632164E-1
9.308278142E0,-6.093376279E-1,-2.382372692E-2,-2.322813272E-1
9.327740017E0,-6.464476585E-1,-9.972367436E-2,-1.965457499E-1
9.347201788E0,-7.895427346E-1,-4.532616735E-1,-2.109010667E-1
9.366663559E0,-7.573196292E-1,-9.970840216E-1,-1.012508348E-1
9.386125434E0,-4.138608873E-1,-1.504712701E0,-1.957821548E-1
9.405587204E0,3.181078434E-1,-1.177594543E0,1.226311028E-1
9.425049079E0,1.821904182E-1,1.179427147E0,8.307760954E-2
9.444510850E0,3.558287323E-1,7.440332770E-1,2.031125315E-2
9.463972725E0,6.698132157E-1,5.222893879E-2,-1.389717404E-2
9.483434496E0,5.407680273E-1,-4.428769648E-2,6.459894776E-2
9.502896267E0,3.101665974E-1,8.933897316E-2,1.582139730E-1
9.522358142E0,1.574503928E-1,1.918115467E-1,2.200640440E-1
9.541819913E0,1.954767257E-1,2.895499170E-1,2.188423127E-1
9.561281788E0,4.992292523E-1,3.555232882E-1,2.403752953E-1
9.580743559E0,6.055197120E-1,3.022253513E-1,2.287688553E-1
9.600205329E0,2.849684060E-1,1.478292793E-1,1.223256737E-1
9.619667204E0,-5.513054505E-2,9.926552884E-3,-5.574141070E-2
9.639128975E0,-1.846338809E-1,-2.535088919E-2,-1.317940801E-1
9.658590746E0,-2.009745091E-1,-1.374445762E-2,-9.529490769E-2
9.678052621E0,-2.020435184E-1,2.748891525E-2,-9.162971750E-3
9.697514392E0,-2.217439115E-1,9.392046183E-2,1.527161989E-2
9.716976267E0,-1.973093301E-1,1.679878123E-2,-4.764745384E-2
9.736438038E0,-1.815795600E-1,-2.843575478E-1,-1.021671370E-1
9.755899809E0,-2.212857604E-1,-7.029526234E-1,-8.536835015E-2
9.775361684E0,-2.545779049E-1,-1.638339281E0,-9.040798992E-2
9.794823454E0,1.417206228E-1,-2.773020744E0,-3.266599476E-1
9.814285329E0,-3.333794475E-1,3.065013885E-1,5.429060459E-1
9.833747100E0,-4.364628792E-1,2.236986876E0,3.049742281E-1
9.853208871E0,5.988001823E-1,1.460119486E0,4.717403352E-1
9.872670746E0,7.400626540E-1,3.220784664E-1,4.444041252E-1
9.892132517E0,4.192059636E-1,-5.215258002E-1,2.687804997E-1
9.911594392E0,2.113592178E-1,-4.741837978E-1,1.273653060E-1
9.931056163E0,1.875354946E-1,3.084867075E-2,-6.566796452E-2
9.950517934E0,1.983783394E-1,3.214675784E-1,-1.641699076E-1
9.969979809E0,2.335030586E-1,2.822195292E-1,-2.490801066E-1
9.989441579E0,2.498437017E-1,-2.428187430E-2,-2.645044625E-1
1.000890335E1,1.921169758E-1,-1.395826042E-1,-2.072358727E-1
1.002836522E1,2.794706449E-2,3.772090003E-2,-1.159115955E-1
1.004782700E1,-1.818849891E-1,1.942549944E-1,-3.161225095E-2
1.006728887E1,-3.796524704E-1,2.501491308E-1,-4.550942779E-2
1.008675064E1,-5.103775263E-1,1.499672979E-1,-1.591302752E-1
1.010621241E1,-6.284271479E-1,-6.261363626E-2,-3.065013885E-1
1.012567429E1,-6.261364222E-1,-2.828303874E-1,-4.013381600E-1
1.014513606E1,-6.728675365E-1,-5.948295593E-1,-3.962985277E-1
1.016459783E1,-7.730493546E-1,-9.850194454E-1,-2.930623889E-1
1.018405970E1,-9.486730099E-1,-1.278845429E0,-1.774562150E-1
1.020352148E1,-6.010909677E-1,-1.542891741E0,-1.759290546E-1
1.022298325E1,-1.159115955E-1,3.291034102E-1,-8.720094711E-2
1.024244512E1,1.114828214E-1,8.845322132E-1,-6.307178736E-2
1.026190689E1,8.052725196E-1,3.439168632E-1,2.428187430E-2
1.028136877E1,1.011439323E0,-1.221729559E-3,2.719875574E-1
1.030083054E1,7.745765448E-1,1.258381456E-1,4.807505906E-1
1.032029231E1,4.534143806E-1,3.028362095E-1,5.390881896E-1
1.033975418E1,1.979201883E-1,4.660898149E-1,3.784307241E-1
1.035921595E1,1.151480079E-1,5.734493136E-1,1.215620935E-1
1.037867773E1,8.903354406E-2,5.604684353E-1,-1.847865991E-2
1.039813960E1,-1.056796089E-1,4.007273018E-1,-4.718930274E-2
1.041760137E1,-3.048215210E-1,2.055560052E-1,2.779434808E-2
1.043706314E1,-2.176205814E-1,4.612028971E-2,1.033888608E-1
1.045652502E1,-3.634645417E-2,-6.230820715E-2,7.849612087E-2
1.047598679E1,4.963276163E-2,-1.125518382E-1,2.489273995E-2
1.049544856E1,1.050687432E-1,-8.048143238E-2,6.017018110E-2
1.051491043E1,9.819651395E-2,-2.947422490E-2,1.618791670E-1
1.053437220E1,-2.672533318E-2,-4.963276163E-2,2.331976295E-1
1.055383398E1,-3.006981909E-1,-2.396117151E-1,1.788306683E-1
1.057329585E1,-8.629992008E-1,-5.190823674E-1,-1.368337125E-1
1.059275762E1,-1.081688762E0,-1.296560526E0,-7.157807946E-1
1.061221950E1,-3.080285788E-1,-2.827845812E0,-6.383536756E-2
1.063168127E1,-1.450803876E-1,6.840158105E-1,5.546652079E-1
1.065114304E1,2.261726856E-1,2.534019709E0,5.650499463E-1
1.067060491E1,6.365211010E-1,1.501658320E0,4.641045034E-1
1.069006668E1,6.889027357E-1,1.299614757E-1,2.286161482E-1
1.070952845E1,3.211621642E-1,-5.867356062E-1,-5.497782957E-3
1.072899033E1,3.194822669E-1,-4.167625010E-1,-1.725693047E-2
1.074845210E1,3.715584874E-1,1.452330947E-1,-9.453132749E-2
1.076791387E1,2.738201320E-1,2.684750557E-1,-1.644753367E-1
1.078737575E1,1.247691289E-1,1.206457913E-1,-2.880227566E-1
1.080683752E1,-4.795288667E-2,-3.420842811E-2,-3.584249020E-1
1.082629929E1,-1.722638607E-1,-1.664606482E-2,-3.011563420E-1
1.084576116E1,-2.503018379E-1,3.013090491E-1,-1.954767257E-1
1.086522293E1,-3.066541255E-1,4.726566374E-1,-1.403461844E-1
1.088468470E1,-2.765690386E-1,4.928151667E-1,-1.679878086E-1
1.090414658E1,-2.144135386E-1,3.170388341E-1,-2.214384824E-1
1.092360835E1,-3.042106628E-1,8.933897316E-2,-2.971857190E-1
1.094307012E1,-5.096139312E-1,-1.495091617E-1,-3.541488647E-1
1.096253200E1,-8.016073108E-1,-3.796524704E-1,-3.475820720E-1
1.098199377E1,-1.039233685E0,-7.354812026E-1,-2.834412456E-1
1.100145554E1,-1.036484838E0,-1.044120669E0,1.924224012E-2
1.102091741E1,-7.667880058E-1,-1.187062979E0,1.305723488E-1
1.104037918E1,-1.223256737E-1,-2.043342739E-1,-3.390299529E-2
1.105984095E1,1.365282834E-1,1.159421325E0,-1.377500147E-1
1.107930283E1,8.436042666E-1,7.469348907E-1,2.229656465E-2
1.109876460E1,1.182176113E0,1.024725661E-1,3.394880891E-1
1.111822637E1,8.527672291E-1,1.276707351E-1,4.596757591E-1
1.113768825E1,5.934551358E-1,3.017672002E-1,3.304778337E-1
1.115715002E1,4.763218164E-1,3.886627257E-1,1.776089370E-1
1.117661179E1,3.649916947E-1,3.943132162E-1,-2.641990222E-2
1.119607366E1,2.550360560E-1,3.602575064E-1,-1.498145908E-1
1.121553543E1,1.817322671E-1,3.239110410E-1,-6.582067907E-2
1.123499720E1,9.346231073E-2,2.483165264E-1,1.278234571E-1
1.125445898E1,6.062832847E-2,1.098029464E-1,1.853974611E-1
1.127392085E1,5.833758786E-2,3.604102135E-2,9.987638891E-2
1.129338262E1,-2.428187430E-2,3.970621154E-3,2.962694131E-2
1.131284439E1,-1.082757786E-1,3.711003438E-2,4.214967042E-2
1.133230627E1,-2.519817278E-2,8.460476995E-2,1.004872546E-1
1.135176804E1,2.347247899E-1,1.120936871E-1,1.919642538E-1
1.137122981E1,3.257436454E-1,2.733619884E-2,2.041815519E-1
1.139069168E1,3.191768378E-2,-4.415025115E-1,6.032289565E-2
1.141015345E1,-4.033234715E-1,-1.268002510E0,-1.217148080E-1
1.142961523E1,-4.288270772E-1,-2.269209862E0,-4.381427765E-1
1.144907710E1,3.504836559E-1,-1.358716011E0,2.185368687E-1
1.146853887E1,4.673115537E-2,1.109941363E0,5.980366468E-1
1.148800064E1,4.841103405E-2,1.860846877E0,-7.696896046E-2
1.150746252E1,5.019781590E-1,1.106581569E0,1.168278903E-1
1.152692429E1,5.665770769E-1,9.972367436E-2,3.494146466E-1
1.154638606E1,2.127336562E-1,-6.349939108E-1,3.060432673E-1
1.156584793E1,-4.245510325E-2,-5.419898033E-1,7.727439702E-2
1.158530970E1,-5.772672221E-2,1.511890348E-2,-2.124282271E-1
1.160477148E1,7.177661359E-2,2.634354234E-1,-3.355174661E-1
1.162423325E1,1.846338809E-1,2.293797284E-1,-3.811796308E-1
1.164369512E1,1.307250559E-1,-6.093376130E-2,-2.840521336E-1
1.166315689E1,1.679878100E-3,-1.649334878E-1,-2.229656428E-1
1.168261866E1,-9.147699922E-2,4.520399496E-2,-1.493564397E-1
1.170208054E1,-1.950185746E-1,1.539379209E-1,-7.666353136E-2
1.172154231E1,-3.622428179E-1,3.924806044E-2,-4.978547990E-2
1.174100408E1,-5.369501114E-1,-9.728021920E-2,-8.170316368E-2
1.176046585E1,-5.574141145E-1,-1.951712966E-1,-2.142608166E-1
1.177992772E1,-5.900954008E-1,-2.777907550E-1,-3.526217043E-1
1.179938950E1,-8.408553600E-1,-6.378955245E-1,-3.897317350E-1
1.181885127E1,-1.005330682E0,-9.138537049E-1,-2.122755051E-1
1.183831314E1,-9.437860847E-1,-1.078787208E0,6.307178736E-2
1.185777491E1,-2.457203567E-1,-1.196989536E0,4.092793912E-2
1.187723668E1,2.907716334E-1,4.879282415E-1,-2.533561587E-1
1.189669845E1,7.852666974E-1,3.304778337E-1,-1.556178033E-1
1.191616033E1,1.055574298E0,4.673115537E-2,1.123991162E-1
1.193562210E1,8.254310489E-1,2.364046723E-1,3.908007443E-1
1.195508387E1,4.511236250E-1,3.614792228E-1,4.772381186E-1
1.197454575E1,1.473711282E-1,3.825540543E-1,3.874409795E-1
1.199400752E1,2.840521187E-2,5.076286197E-1,2.017380893E-1
1.201346929E1,7.788525894E-3,5.354229808E-1,-4.199695215E-2
1.203293106E1,-1.403461844E-1,4.460839927E-1,-1.991419196E-1
1.205239293E1,-3.591884971E-1,3.242164850E-1,-1.855501831E-1
1.207185470E1,-2.994764447E-1,1.693622619E-1,1.970038936E-2
1.209131648E1,-1.069013402E-2,9.010255337E-3,1.873827726E-1
1.211077835E1,9.743293375E-2,-1.380554438E-1,7.574722916E-2
1.213024012E1,1.267544460E-2,-2.539670467E-1,-1.605047137E-1
1.214970189E1,2.336557768E-2,-1.989891976E-1,-1.873827726E-1
1.216916366E1,5.803215504E-2,-1.985310577E-3,-1.771507785E-2
1.218862554E1,4.734202102E-2,1.695149690E-1,1.908952445E-1
1.220808731E1,6.841685623E-2,8.796452731E-2,2.974911332E-1
1.222754908E1,-1.009454057E-1,-1.753181964E-1,2.429714650E-1
1.224701085E1,-5.859720111E-1,-7.918334603E-1,-1.861610413E-1
1.226647273E1,-5.212203860E-1,-2.342513800E0,-9.418007731E-1
1.228593450E1,-3.032943606E-1,-1.396742344E0,4.618137777E-1
1.230539627E1,-2.614501119E-1,2.677114964E0,2.244928032E-1
1.232485814E1,2.649625838E-1,2.394284487E0,3.988946974E-1
1.234431991E1,5.209149122E-1,1.014340997E0,4.476111531E-1
1.236378168E1,2.840521336E-1,-6.017018110E-2,2.764163017E-1
1.238324356E1,1.296560466E-1,-4.905244112E-1,1.189659163E-1
1.240270533E1,-1.313359290E-2,-2.324340492E-1,-2.107483521E-2
1.242216710E1,-1.589775532E-1,2.576322258E-1,-1.427896470E-1
1.244162887E1,-2.090684772E-1,2.664897740E-1,-1.849393100E-1
1.246109075E1,-1.105665267E-1,1.629481763E-1,-1.815795600E-1
1.248055252E1,3.665188700E-2,3.665188793E-3,-1.203403622E-1
1.250001429E1,1.211039424E-1,6.688969582E-2,-6.108647794E-4
1.251947606E1,9.132428467E-2,3.300196826E-1,9.605848789E-2
1.253893793E1,-3.878991306E-2,4.360047281E-1,9.605848789E-2
1.255839970E1,-1.374445707E-1,2.614501119E-1,-3.512472659E-2
1.257786148E1,-2.794706225E-1,-5.742128938E-2,-2.072358727E-1
1.259732335E1,-4.422661066E-1,-2.437350452E-1,-3.269653618E-1
1.261678512E1,-6.186532974E-1,-1.812741160E-1,-3.564395905E-1
1.263624689E1,-8.231402636E-1,-2.677114904E-1,-3.211621642E-1
1.265570866E1,-8.466585875E-1,-6.835576892E-1,-1.600465775E-1
1.267517054E1,-1.013424635E0,-9.184352160E-1,1.374445762E-2
1.269463231E1,-1.085964918E0,-1.344818830E0,-3.306305707E-1
1.271409408E1,-4.077522457E-1,-4.969384968E-1,-4.505127668E-1
1.273355585E1,3.069595434E-2,7.492256761E-1,-1.548542231E-1
1.275301773E1,4.964803457E-1,5.337430835E-1,8.811724186E-2
1.277247950E1,8.749110699E-1,3.309359848E-1,4.208858311E-1
1.279194127E1,9.013310075E-1,3.718639314E-1,4.644099474E-1
1.281140304E1,7.634282708E-1,3.831649423E-1,3.578140438E-1
1.283086491E1,6.747001410E-1,3.280344009E-1,1.844811589E-1
1.285032668E1,5.929969549E-1,3.750709891E-1,3.802633286E-2
1.286978845E1,4.363101721E-1,4.066832364E-1,-2.229656465E-2
1.288925023E1,2.141081095E-1,3.229947388E-1,2.351829410E-2
1.290871210E1,1.913533956E-1,1.383608729E-1,1.701258421E-1
1.292817387E1,2.602283955E-1,-1.547015011E-1,2.525925934E-1
1.294763564E1,2.064722925E-1,-3.590357602E-1,1.426369250E-1
1.296709741E1,8.674279600E-2,-4.772381186E-1,-1.354592592E-1
1.298655918E1,1.438586563E-1,-3.199404180E-1,-3.176496923E-1
1.300602106E1,2.464839369E-1,-5.283980444E-2,-2.344193608E-1
1.302548283E1,1.788306683E-1,1.108719558E-1,-3.787361458E-2
1.304494460E1,1.110246703E-1,-4.535670951E-2,1.449276656E-1
1.306440637E1,1.298087686E-1,-5.830704570E-1,2.813032269E-1
1.308386825E1,-1.600465775E-1,-9.019418359E-1,1.475238502E-1
1.310333002E1,-2.029598206E-1,-1.971260667E0,-5.378664136E-1
1.312279179E1,-1.056796089E-1,-2.092059135E0,-2.655734718E-1
1.314225366E1,-4.602866173E-1,1.478292823E0,4.715875983E-1
1.316171543E1,-2.234237939E-1,2.368933678E0,4.575377107E-1
1.318117720E1,2.165515572E-1,1.408501506E0,4.256200492E-1
1.320063898E1,3.761399984E-1,6.977602839E-1,1.956294477E-1
1.322010085E1,4.201222658E-1,1.270598769E-1,5.482511222E-2
1.323956262E1,4.721984863E-1,-3.726275265E-2,-1.527161989E-2
1.325902439E1,3.312414289E-1,2.703076601E-1,-7.712167501E-2
1.327848616E1,-5.054906011E-2,3.700313270E-1,-1.531743407E-1
1.329794804E1,-2.994764447E-1,2.736674249E-1,-1.902843714E-1
1.331740981E1,-1.237001196E-1,2.046397030E-1,-1.513417512E-1
1.333687158E1,1.511890292E-1,1.658497900E-1,9.468403645E-3
1.335633335E1,1.437059343E-1,2.851211429E-1,1.149952933E-1
1.337579512E1,-1.314886510E-1,2.153298408E-1,8.689551800E-2
1.339525700E1,-4.499019086E-1,-2.580903657E-2,-2.306014486E-2
1.341471877E1,-7.541125417E-1,-1.774562150E-1,-1.102610901E-1
1.343418054E1,-9.665408134E-1,-2.032652497E-1,-1.798996776E-1
1.345364231E1,-1.132085204E0,-2.655734718E-1,-2.380845547E-1
1.347310418E1,-1.277623653E0,-4.021017551E-1,-2.982547283E-1
1.349256595E1,-1.032666922E0,-5.623010397E-1,-2.400698513E-1
1.351202773E1,-9.592103958E-1,-4.691441655E-1,-8.139773458E-2
1.353148950E1,-6.882919073E-1,-8.814778924E-1,-1.565341055E-1
1.355095137E1,-1.899789423E-1,-6.618719697E-1,-1.498145908E-1
1.357041314E1,9.896009415E-2,5.981893539E-1,-1.327103674E-1
1.358987491E1,7.125737667E-1,5.564978123E-1,-3.451386094E-2
1.360933668E1,1.267238975E0,1.693622619E-1,2.348775119E-1
1.362879856E1,1.314275622E0,1.496618707E-2,4.350884259E-1
1.364826033E1,1.112995625E0,1.806632578E-1,4.705185890E-1
1.366772210E1,8.804088831E-1,3.755291104E-1,3.924806118E-1
1.368718387E1,7.064651251E-1,4.795288444E-1,1.942549944E-1
1.370664575E1,5.972730517E-1,4.451677203E-1,2.367101051E-2
1.372610752E1,4.346303046E-1,2.212857604E-1,-5.910116807E-2
1.374556929E1,2.356410921E-1,-6.017018110E-2,-4.703658819E-2
1.376503106E1,1.797469556E-1,-2.128863782E-1,1.756236330E-2
1.378449283E1,2.061668634E-1,-2.718348205E-1,8.552107029E-3
1.380395470E1,1.379027218E-1,-3.112356067E-1,-1.059850380E-1
1.382341648E1,7.757982612E-2,-2.533561587E-1,-1.853974611E-1
1.384287825E1,1.029307172E-1,-1.601992846E-1,-1.128572673E-1
1.386234002E1,1.119409725E-1,-1.227838174E-1,3.741546720E-2
1.388180179E1,8.216131479E-2,-2.083048970E-1,1.776089370E-1
1.390126366E1,-1.076649204E-1,-3.098611534E-1,2.052505612E-1
1.392072543E1,-5.400044918E-1,-4.503600597E-1,-5.024362728E-2
1.394018720E1,-5.021308661E-1,-1.510210395E0,-5.574141145E-1
1.395964908E1,-1.017089859E-1,-1.750585794E0,1.076649204E-1
1.397911085E1,-3.170388341E-1,1.670104265E0,3.315468729E-1
1.399857262E1,-1.130099874E-2,2.420398951E0,3.106247485E-1
1.401803439E1,4.709767401E-1,1.190880895E0,3.451386094E-1
1.403749627E1,4.001164436E-1,-2.076940238E-2,1.409570426E-1
1.405695804E1,2.687804960E-2,-5.338957906E-1,-2.092211880E-2
1.407641981E1,-7.223475724E-2,-2.669478953E-1,-1.062904745E-1
1.409588158E1,1.081230640E-1,3.083339930E-1,-2.222020626E-1
1.411534335E1,2.330449075E-1,2.868010104E-1,-2.619082630E-1
1.413480523E1,1.905898154E-1,-7.483093534E-3,-3.054323792E-1
1.415426700E1,8.109229803E-2,-1.715002805E-1,-2.516762912E-1
1.417372877E1,-5.650499370E-3,-1.423314959E-1,-1.705839932E-1
1.419319054E1,-1.211039424E-1,1.128572673E-1,-6.291907281E-2
1.421265231E1,-2.594648004E-1,2.927569449E-1,-1.099556591E-2
1.423211418E1,-3.981311321E-1,2.617555559E-1,-4.566214234E-2
1.425157595E1,-5.430588126E-1,2.993237413E-2,-1.441640854E-1
1.427103773E1,-6.299542785E-1,-2.364046723E-1,-2.539670467E-1
1.429049950E1,-7.545707226E-1,-5.404626131E-1,-3.860665262E-1
1.430996127E1,-9.453132749E-1,-8.040507436E-1,-4.063777924E-1
1.432942314E1,-1.052978158E0,-1.023962140E0,-2.648098767E-1
1.434888491E1,-1.027932763E0,-9.847140312E-1,6.780599058E-2
1.436834668E1,-5.739074349E-1,-1.108872294E0,2.353356630E-1
1.438780845E1,-5.849030241E-2,1.322522312E-1,4.153880477E-2
1.440727033E1,2.710712552E-1,4.660898149E-1,9.957095981E-2
1.442673210E1,9.049961567E-1,2.064722925E-1,2.474002391E-1
1.444619387E1,9.920443892E-1,1.650862098E-1,4.477638900E-1
1.446565564E1,6.707295179E-1,2.738201320E-1,5.145008564E-1
1.448511741E1,5.134318471E-1,4.189005196E-1,5.044215918E-1
1.450457918E1,5.433642268E-1,5.731438994E-1,3.625482321E-1
1.452404106E1,5.458076596E-1,5.911644101E-1,1.270598769E-1
1.454350283E1,3.665188551E-1,5.010618567E-1,-3.619373962E-2
1.456296460E1,1.211039424E-1,4.277580678E-1,-3.985892609E-2
1.458242637E1,2.122755162E-2,2.916879356E-1,6.139190868E-2
1.460188814E1,7.757982612E-2,7.819069177E-2,1.227838174E-1
1.462135002E1,8.918625861E-2,-1.026252806E-1,5.085449293E-2
1.464081179E1,1.817322709E-2,-2.412915826E-1,-9.972367436E-2
1.466027356E1,8.552107029E-3,-2.597702444E-1,-1.186604798E-1
1.467973533E1,3.054323979E-2,-1.675296724E-1,3.344484791E-2
1.469919710E1,-1.572976820E-2,-1.119409725E-1,2.049451321E-1
1.471865898E1,-7.483093441E-2,-2.993237376E-1,2.631300092E-1
1.473812075E1,-2.768744528E-1,-5.487092733E-1,1.481347084E-1
1.475758252E1,-6.966912746E-1,-1.091462612E0,-2.275471240E-1
1.477704429E1,-4.848739207E-1,-2.591593742E0,-1.031445146E0
1.479650606E1,-3.741546720E-2,-6.305651665E-1,8.093958348E-2
1.481596793E1,3.643808365E-1,2.226449490E0,4.650208056E-1
1.483542970E1,8.095485568E-1,2.090990067E0,4.124864340E-1
1.485489148E1,1.047938585E0,9.908226728E-1,2.641990185E-1
1.487435325E1,7.579304576E-1,2.066250145E-1,-8.093958721E-3
1.489381502E1,3.746128380E-1,-8.872810751E-2,-1.412624866E-1
1.491327689E1,2.695440948E-1,1.789833754E-1,-2.006690800E-1
1.493273866E1,2.545779049E-1,3.342957497E-1,-2.304487377E-1
1.495220043E1,1.771507859E-1,2.104429156E-1,-2.722929716E-1
1.497166220E1,1.293506175E-1,1.501200199E-1,-2.930623889E-1
1.499112398E1,1.495091617E-1,-8.796452731E-2,-2.348775119E-1
1.501058575E1,6.933315098E-2,-1.200349256E-1,-1.441640854E-1
1.503004762E1,-9.498947114E-2,4.627300799E-2,-6.765327603E-2
1.504950939E1,-2.477056682E-1,1.249218509E-1,-1.847865991E-2
1.506897116E1,-4.198168218E-1,-4.291325063E-2,-3.145953640E-2
1.508843293E1,-7.170025110E-1,-4.741837978E-1,-1.513417512E-1
1.510789470E1,-9.897536635E-1,-8.031344414E-1,-3.061959743E-1
1.512735658E1,-1.188437462E0,-8.894191384E-1,-4.051560760E-1
1.514681835E1,-1.406974316E0,-1.056643367E0,-4.005745649E-1
1.516628012E1,-1.430645347E0,-1.252272844E0,-1.727220118E-1
1.518574189E1,-1.455385327E0,-9.882264733E-1,-3.359756200E-3
1.520520366E1,-7.548761368E-1,-7.487674952E-1,-2.596175298E-3
1.522466543E1,3.680460155E-2,8.753692508E-1,4.245510325E-2
1.524412731E1,6.175842881E-1,7.788525820E-1,9.208786488E-2
1.526358908E1,1.185230374E0,4.633409381E-1,2.638935745E-1
1.528305085E1,1.025031090E0,4.622719288E-1,4.279107749E-1
1.530251262E1,6.232348084E-1,5.984947681E-1,4.859429300E-1
1.532197439E1,3.339903057E-1,6.469057798E-1,4.538725317E-1
1.534143616E1,2.270889878E-1,5.687150955E-1,2.747364342E-1
1.536089793E1,2.399171442E-1,4.802924395E-1,9.743293375E-2
1.538035981E1,1.896735132E-1,3.714057803E-1,3.665188793E-3
1.539982158E1,1.237001196E-1,2.133445293E-1,2.229656465E-2
1.541928335E1,1.736383140E-1,1.030834317E-1,1.395826042E-1
1.543874512E1,2.472475171E-1,3.268126398E-2,2.153298408E-1
1.545820689E1,1.447749585E-1,-5.650499091E-2,9.468404204E-2
1.547766866E1,3.207040019E-3,-8.368847519E-2,-8.811724186E-2
1.549713054E1,-2.428187430E-2,-4.749473557E-2,-1.281288862E-1
1.551659231E1,-2.489273995E-2,6.017018110E-2,-2.214384824E-2
1.553605408E1,-7.116574794E-2,5.451968312E-2,1.149952933E-1
1.555551585E1,-1.217148080E-1,-8.139773458E-2,1.776089370E-1
1.557497762E1,-3.733910918E-1,-2.880227566E-1,1.075121984E-1
1.559443939E1,-6.663007736E-1,-9.221003652E-1,-6.368265301E-2
1.561390127E1,-6.059778333E-1,-1.985921383E0,-3.692677617E-1
1.563336304E1,3.817904973E-3,-1.348636746E0,-1.603520103E-2
1.565282481E1,5.445859432E-1,1.136666656E0,2.817613780E-1
1.567228658E1,6.543889046E-1,1.486997604E0,1.053741723E-1
1.569174835E1,6.088794470E-1,1.159879446E0,4.810560122E-2
1.571121022E1,6.372846961E-1,3.888154328E-1,1.076649204E-1
1.573067200E1,6.027708054E-1,-1.721111536E-1,8.582650125E-2
1.575013377E1,5.619956255E-1,-6.154462695E-2,-2.474002354E-2
1.576959554E1,4.874700904E-1,2.264781147E-1,-1.415679157E-1
1.578905731E1,3.790415823E-1,2.935205400E-1,-2.293797284E-1
1.580851908E1,2.724456787E-1,9.010255337E-2,-2.444986254E-1
1.582798095E1,2.597702444E-1,-9.162971377E-2,-1.982256174E-1
1.584744272E1,2.611446977E-1,-2.799287736E-1,-1.456912458E-1
1.586690450E1,1.789833754E-1,-2.040288299E-1,-1.134681329E-1
1.588636627E1,5.345067009E-3,-2.153298259E-2,-8.643736690E-2
1.590582804E1,-1.857028902E-1,1.273653060E-1,-5.589412898E-2
1.592528981E1,-3.675878942E-1,1.130099818E-1,-5.742128938E-2
1.594475168E1,-5.451968312E-1,-5.635227636E-2,-1.142317131E-1
1.596421345E1,-6.362156868E-1,-3.010036349E-1,-1.996000707E-1
1.598367522E1,-8.460476995E-1,-5.522217751E-1,-3.683514595E-1
1.600313700E1,-1.066569924E0,-8.077159524E-1,-4.390590489E-1
1.602259877E1,-1.111315727E0,-9.286671877E-1,-2.892444730E-1
1.604206054E1,-1.222340465E0,-7.319687009E-1,-4.413498193E-2
1.606152231E1,-7.043271065E-1,-9.718858600E-1,-4.046979174E-2
1.608098418E1,-2.611446939E-2,2.455676347E-1,-2.263254076E-1
1.610044595E1,6.270527244E-1,5.258018374E-1,-9.422589093E-2
1.611990772E1,1.322522283E0,2.313650399E-1,2.055560052E-1
1.613936950E1,1.071151376E0,3.940077871E-2,4.876227975E-1
1.615883127E1,4.011854529E-1,2.900080681E-1,4.893026948E-1
1.617829304E1,1.299614757E-1,5.352702737E-1,4.315759540E-1
1.619775491E1,1.574503928E-1,6.580541134E-1,2.458730787E-1
1.621721668E1,2.296851575E-1,5.832231641E-1,2.611446939E-2
1.623667845E1,1.585194170E-1,4.518872201E-1,-1.024725661E-1
1.625614022E1,-3.497200832E-2,3.576613367E-1,-7.574722916E-2
1.627560200E1,-5.421425030E-2,2.388481349E-1,8.338304609E-2
1.629506377E1,9.590577334E-2,5.879573524E-2,2.061668634E-1
1.631452554E1,1.453858167E-1,-8.414662629E-2,1.600465775E-1
1.633398741E1,8.720094711E-2,-1.102610901E-1,-4.764745384E-2
1.635344918E1,9.560033679E-2,-2.122755162E-2,-1.559232324E-1
1.637291095E1,9.743293375E-2,7.101303339E-2,-7.849612087E-2
1.639237272E1,-3.665188700E-2,8.277218044E-2,1.695149764E-2
1.641183450E1,-2.357937992E-1,-6.688969582E-2,2.290742844E-2
1.643129627E1,-5.772672296E-1,-2.926042378E-1,-1.116355360E-1
1.645075814E1,-8.568905592E-1,-6.401863098E-1,-3.136790693E-1
1.647021991E1,-3.668242991E-1,-1.808312416E0,-5.939132571E-1
1.648968168E1,1.096502244E-1,-1.165682673E0,4.793761373E-1
1.650914345E1,1.551596522E-1,2.025016785E0,4.967857897E-1
1.652860522E1,6.294961572E-1,2.160934210E0,4.106538594E-1
1.654806700E1,9.089667797E-1,8.031344414E-1,4.489856064E-1
1.656752887E1,4.338667095E-1,-2.926042378E-1,8.888082206E-2
1.658699064E1,7.635809481E-2,-4.789179862E-1,-9.773836471E-3
1.660645241E1,2.145662606E-1,-7.605266571E-2,-6.078104675E-2
1.662591418E1,4.416552484E-1,4.085158110E-1,-1.168278903E-1
1.664537609E1,4.060723484E-1,5.749764442E-1,-1.768453568E-1
1.666483786E1,2.290742993E-1,2.981020212E-1,-2.652680278E-1
1.668429963E1,1.517999023E-1,1.863137633E-2,-2.968802750E-1
1.670376150E1,1.650862098E-1,-9.437860548E-2,-1.904370934E-1
1.672322328E1,4.688387364E-2,4.932733253E-2,-7.391463965E-2
1.674268505E1,-1.999054998E-1,2.170097083E-1,-4.016435891E-2
1.676214682E1,-4.407389462E-1,1.727220118E-1,-1.044578776E-1
1.678160859E1,-7.015781999E-1,-1.197294965E-1,-2.225074917E-1
1.680107036E1,-8.730784655E-1,-4.101957083E-1,-3.321577311E-1
1.682053213E1,-8.988875151E-1,-6.012436748E-1,-3.263545036E-1
1.683999400E1,-9.384410381E-1,-8.086322546E-1,-2.845102847E-1
1.685945578E1,-9.457713962E-1,-9.272927642E-1,-1.388190240E-1
1.687891755E1,-9.946405888E-1,-7.469348907E-1,1.119409725E-1
1.689837932E1,-8.481857181E-1,-6.418661475E-1,2.400698513E-1
1.691784109E1,-1.186604798E-1,-6.626355648E-1,-9.392046183E-2
1.693730286E1,2.964221239E-1,6.571378112E-1,-2.028071135E-1
1.695676463E1,6.291907430E-1,7.130318880E-1,4.856374860E-2
1.697622650E1,7.353284955E-1,3.721693754E-1,4.286743701E-1
1.699568828E1,7.014254928E-1,2.623664141E-1,5.929969549E-1
1.701515005E1,5.430588126E-1,3.390299380E-1,4.153880477E-1
1.703461182E1,4.019490182E-1,3.984365463E-1,1.950185746E-1
1.705407359E1,4.289797843E-1,4.888445437E-1,-2.916879393E-2
1.707353536E1,3.981311321E-1,5.375609994E-1,-1.650862098E-1
1.709299713E1,2.095266134E-1,5.125155449E-1,-1.572976857E-1
1.711245890E1,1.704312712E-1,3.416261375E-1,1.023198478E-2
1.713192078E1,2.889390290E-1,5.986474827E-2,1.569922417E-1
1.715138255E1,2.872591615E-1,-1.666133702E-1,1.131627038E-1
1.717084432E1,2.330449075E-1,-2.000582218E-1,-2.871064469E-2
1.719030609E1,1.740964651E-1,-4.978547990E-2,-7.055488229E-2
1.720976786E1,1.261435747E-1,1.656970680E-1,-3.207040019E-3
1.722922963E1,4.948004708E-2,1.214093715E-1,9.178243577E-2
1.724869140E1,-2.661843300E-1,-2.385426909E-1,3.451386094E-2
1.726815328E1,-6.113229394E-1,-7.637336850E-1,-2.512181401E-1
1.728761505E1,-5.888736248E-1,-1.494022489E0,-4.781544209E-1
1.730707682E1,1.800523996E-1,-2.435365200E0,-3.787361458E-2
1.732653859E1,5.345066786E-1,8.616247773E-1,4.283689260E-1
1.734600036E1,1.151480079E-1,2.314566612E0,2.689332068E-1
1.736546213E1,2.600756884E-1,1.546556950E0,1.069013327E-1
1.738492390E1,3.996582925E-1,3.484983444E-1,6.933315098E-2
1.740438578E1,2.802342176E-1,-3.185659945E-1,4.153880477E-2
1.742384755E1,3.836230934E-1,-2.916879393E-2,-3.940077871E-2
1.744330932E1,4.387536347E-1,4.992292523E-1,-1.266017258E-1
1.746277109E1,2.391535640E-1,5.206094980E-1,-1.695149690E-1
1.748223286E1,-2.107483521E-2,2.860374451E-1,-1.678351015E-1
1.750169463E1,-3.741546720E-2,3.191768378E-2,-9.224057943E-2
1.752115640E1,1.209512278E-1,-1.656970680E-1,6.765327603E-2
1.754061817E1,1.104138121E-1,-3.909534588E-2,1.488982886E-1
1.756007994E1,-1.094975099E-1,1.072067693E-1,8.368847519E-2
1.757954182E1,-3.342957497E-1,9.330959618E-2,-8.765909821E-2
1.759900359E1,-5.636754632E-1,-7.696896046E-2,-2.571740746E-1
1.761846536E1,-7.663298845E-1,-2.648098767E-1,-3.430005610E-1
1.763792713E1,-8.772017956E-1,-4.506655037E-1,-3.885099888E-1
1.765738890E1,-9.822705388E-1,-6.548470259E-1,-3.307832778E-1
1.767685067E1,-7.611374855E-1,-8.475748897E-1,3.695731983E-2
1.769631244E1,-8.704823256E-1,-7.867938280E-1,3.411679864E-1
1.771577421E1,-7.504473925E-1,-1.039539099E0,1.482874304E-1
1.773523609E1,-7.895427197E-2,1.882990748E-1,-2.765690386E-1
1.775469786E1,6.097957492E-1,5.215258002E-1,9.147699922E-2
1.777415963E1,9.581413865E-1,2.776380479E-1,3.581194878E-1
1.779362140E1,7.214313149E-1,1.534797698E-1,5.823068619E-1
1.781308317E1,5.190823674E-1,2.988655865E-1,5.670352578E-1
1.783254494E1,4.531089365E-1,4.692968726E-1,4.164570570E-1
1.785200671E1,4.387536347E-1,6.061306000E-1,1.156061590E-1
1.787146848E1,2.892444730E-1,6.157516837E-1,-1.298087686E-1
1.789093036E1,2.993237413E-2,4.856374860E-1,-1.912006736E-1
1.791039213E1,-1.530216336E-1,3.013090491E-1,-3.924806044E-2
1.792985390E1,-1.826485693E-1,1.047633067E-1,1.408043355E-1
1.794931567E1,-2.090684772E-1,-1.954767257E-1,1.178968996E-1
1.796877744E1,-2.851211429E-1,-2.756527364E-1,1.924224012E-2
1.798823921E1,-4.019490182E-1,-1.049160287E-1,1.038470119E-2
1.800770098E1,-3.964512348E-1,1.592829973E-1,9.575305134E-2
1.802716275E1,-2.686277926E-1,2.869537175E-1,1.640172005E-1
1.804662453E1,-3.173442483E-1,6.750056148E-2,1.070540547E-1
1.806608630E1,-2.868010104E-1,-1.364671946E0,-3.152062297E-1
1.808554817E1,-3.619373962E-2,-2.212857723E0,-3.249800503E-1
1.810500994E1,5.757400393E-2,-3.335321844E-1,3.799578846E-1
1.812447171E1,5.135845542E-1,1.654527307E0,2.787070572E-1
1.814393348E1,6.797397733E-1,1.184619546E0,6.963858753E-2
1.816339525E1,6.357575059E-1,2.141081095E-1,-2.066250145E-1
1.818285702E1,7.451022863E-1,-3.562868834E-1,-2.182314396E-1
1.820231880E1,8.746056557E-1,-4.410443604E-1,-2.809977904E-2
1.822178067E1,8.880446553E-1,-2.808450758E-1,5.742128938E-2
1.824124244E1,6.264418364E-1,3.665188793E-3,-1.130099874E-2
1.826070421E1,1.950185746E-1,2.063195854E-1,-2.142608166E-1
1.828016598E1,-7.009673119E-2,2.426660359E-1,-4.352411628E-1
1.829962775E1,-1.615737379E-1,2.063195854E-1,-4.123337269E-1
1.831908953E1,-1.840230078E-1,7.681624591E-2,-1.776089370E-1
1.833855130E1,-2.457203567E-1,2.351829410E-2,-4.795288667E-2
1.835801307E1,-3.278816640E-1,-1.951712966E-1,5.955931731E-3
1.837747484E1,-3.330740333E-1,-5.389354229E-1,3.222311661E-2
1.839693661E1,-2.835939825E-1,-6.125446558E-1,1.267544460E-2
1.841639838E1,-3.564395905E-1,-3.640754223E-1,-9.407317638E-2
1.843586025E1,-5.992583632E-1,-2.408334464E-1,-2.309068888E-1
1.845532202E1,-8.805615902E-1,-3.976729810E-1,-2.880227566E-1
1.847478380E1,-1.032056093E0,-7.225003242E-1,-2.060141414E-1
1.849424557E1,-9.665408134E-1,-1.087950230E0,5.513054505E-2
1.851370734E1,-5.135845542E-1,-1.129488945E0,9.422589093E-2
1.853316911E1,1.586721241E-1,-1.701258421E-1,-9.666935354E-2
1.855263088E1,2.212857604E-1,1.182939649E0,-3.481929377E-2
1.857209265E1,5.958985686E-1,8.778126836E-1,1.287397593E-1
1.859155442E1,8.626937866E-1,6.117810607E-1,3.167333901E-1
1.861101619E1,8.287907839E-1,6.705768108E-1,3.804160357E-1
1.863047796E1,7.881683111E-1,7.183769941E-1,3.486510813E-1
1.864993984E1,7.756455541E-1,6.635518670E-1,1.727220118E-1
1.866940161E1,5.988001823E-1,6.794343591E-1,-1.142317131E-1
1.868886338E1,1.649334878E-1,7.449495792E-1,-2.284634262E-1
1.870832515E1,-6.688969582E-2,6.747001410E-1,-8.536835015E-2
1.872778692E1,1.088866442E-1,4.195113778E-1,1.353065521E-1
1.874724869E1,3.361283541E-1,1.296560466E-1,1.673769504E-1
1.876671046E1,2.492328286E-1,-1.634063274E-1,-2.535088919E-2
1.878617223E1,-2.382372692E-2,-2.582430840E-1,-1.795942485E-1
1.880563400E1,-1.818849891E-1,-1.905898154E-1,-5.283980444E-2
1.882509578E1,-1.718057245E-1,-8.628465235E-2,2.015853822E-1
1.884455765E1,-1.701258421E-1,-6.582067907E-2,2.838993967E-1
1.886401942E1,-2.518289983E-1,-2.525925934E-1,1.385135949E-1
1.888348119E1,-4.529562294E-1,-6.116283536E-1,-5.497783050E-2
1.890294296E1,-7.496837974E-1,-1.330616236E0,-1.690568328E-1
1.892240473E1,-2.619082630E-1,-2.364810228E0,-1.334739476E-1
1.894186650E1,5.555815101E-1,-1.374903917E0,-1.560759544E-1
1.896132828E1,1.725693047E-2,1.638186574E0,3.306305707E-1
1.898079005E1,-3.659079969E-1,2.124282360E0,1.475238502E-1
1.900025192E1,9.010255337E-1,1.097571254E0,2.315177470E-1
1.901971369E1,1.316413641E0,1.736383140E-1,4.268417656E-1
1.903917546E1,7.945823669E-1,-3.469711840E-1,2.047924101E-1
1.905863723E1,3.097084463E-1,6.643154472E-2,-1.388190240E-1
1.907809900E1,1.886045039E-1,6.113229394E-1,-3.704894781E-1
1.909756078E1,2.648098767E-1,6.177369952E-1,-3.912588954E-1
1.911702255E1,3.987419903E-1,3.562868834E-1,-3.052796721E-1
1.913648432E1,4.529562294E-1,-1.185077652E-1,-7.666353136E-2
1.915594609E1,3.451386094E-1,-3.692677617E-1,8.796452731E-2
1.917540786E1,1.273653060E-1,-1.892153621E-1,5.131264031E-2
1.919486963E1,-5.238165334E-2,-6.108647678E-3,-5.894844979E-2
1.921433140E1,-2.206749022E-1,1.339320987E-1,-2.263254076E-1
1.923379317E1,-4.010327160E-1,6.001746282E-2,-3.559814394E-1
1.925325494E1,-4.891499579E-1,-2.144135386E-1,-3.747655451E-1
1.927271682E1,-6.314814687E-1,-5.152644515E-1,-3.601047993E-1
1.929217859E1,-7.768672705E-1,-7.180715203E-1,-1.769980639E-1
1.931164036E1,-8.393282294E-1,-8.597921729E-1,2.002109289E-1
1.933110213E1,-8.371901512E-1,-1.198364019E0,-1.725693047E-2
1.935056390E1,-4.821250141E-1,-3.988946974E-1,-1.311832070E-1
1.937002567E1,-2.176205814E-1,7.379246354E-1,-8.888082206E-2
1.938948744E1,4.211912751E-1,4.240928590E-1,1.116355360E-1
1.940894921E1,6.363683939E-1,4.108065739E-2,3.503309488E-1
1.942841098E1,5.355756879E-1,-1.266017258E-1,4.928151667E-1
1.944787275E1,5.516108871E-1,-1.085812151E-1,4.628827870E-1
1.946733453E1,4.948004782E-1,1.473711282E-1,2.837466896E-1
1.948679630E1,2.467893660E-1,5.152644515E-1,7.391463965E-2
1.950625817E1,-6.078104675E-2,6.119337678E-1,3.130681813E-2
1.952571994E1,-2.032652497E-1,4.292852283E-1,1.400407553E-1
1.954518171E1,-1.942549944E-1,3.327685893E-1,2.313650399E-1
1.956464348E1,-1.890626550E-1,2.176205814E-1,6.230820715E-2
1.958410525E1,-2.785543501E-1,8.063415438E-2,-1.618791670E-1
1.960356702E1,-4.095848203E-1,3.054323897E-4,-1.438586563E-1
1.962302880E1,-4.787652791E-1,4.474584386E-2,2.443459071E-2
1.964249057E1,-3.678933084E-1,9.789107740E-2,2.148716897E-1
1.966195234E1,-3.582721949E-1,-1.123991162E-1,3.313941360E-1
1.968141411E1,-7.422007322E-1,-7.605266571E-1,4.581485991E-4
1.970087588E1,-8.943060637E-1,-2.319300890E0,-4.395172000E-1
1.972033765E1,1.892153621E-1,-2.210872412E0,-2.449567765E-1
1.973979942E1,7.832813859E-1,1.387732029E0,4.008800089E-1
1.975926130E1,4.150826037E-1,2.375958443E0,1.766926348E-1
1.977872307E1,3.704894781E-1,1.466533661E0,-7.819069177E-2
1.979818484E1,5.051851869E-1,1.191186346E-2,-2.412915789E-2
1.981764661E1,5.371028781E-1,-7.658717036E-1,1.565341055E-1
1.983710838E1,3.711003661E-1,-7.887791395E-1,8.353576064E-2
1.985657015E1,2.414443046E-1,-3.408625424E-1,-7.681624591E-2
1.987603192E1,1.751654744E-1,9.636391699E-2,-2.454149276E-1
1.989549369E1,8.124501258E-2,2.014326602E-1,-2.822195292E-1
1.991495546E1,8.506292105E-2,1.461493969E-1,-2.451094985E-1
1.993441723E1,1.748600453E-1,8.261945844E-2,-1.279761642E-1
1.995387900E1,2.287688553E-1,1.426369250E-1,-1.328630932E-2
1.997334078E1,1.560759544E-1,2.638935745E-1,1.970038936E-2
1.999280255E1,-4.016435891E-2,2.874118686E-1,-7.666353136E-2
2.001226442E1,-2.838993967E-1,1.278234571E-1,-1.973093301E-1
2.003172619E1,-5.064069033E-1,-1.637117565E-1,-2.813032269E-1
2.005118796E1,-7.444914579E-1,-4.127918780E-1,-3.904953003E-1
2.007064973E1,-1.097723961E0,-6.675224900E-1,-4.732674956E-1
2.009011150E1,-1.355356216E0,-9.091194868E-1,-3.978256881E-1
2.010957328E1,-1.418733478E0,-9.294307828E-1,-1.377500147E-1
2.012903505E1,-1.063820958E0,-1.010675788E0,7.024944760E-3
2.014849682E1,-2.037234008E-1,-4.715875983E-1,-1.408043355E-1
2.016795859E1,2.099847645E-1,5.881100893E-1,-1.198822111E-1
2.018742036E1,8.808670044E-1,5.065596104E-1,1.658497900E-1
2.020688213E1,1.016326308E0,1.797469556E-1,5.175551772E-1
2.022634390E1,5.862774849E-1,2.448040545E-1,5.948295593E-1
2.024580567E1,3.885099888E-1,4.766272306E-1,4.540252388E-1
2.026526744E1,4.524980783E-1,6.209440231E-1,2.690859437E-1
2.028472921E1,4.718930423E-1,5.842921734E-1,6.887500733E-2
2.030419098E1,1.275180280E-1,4.723511934E-1,-1.020144150E-1
2.032365275E1,-3.339903057E-1,3.532325625E-1,-1.240055487E-1
2.034311463E1,-3.400989771E-1,1.139262840E-1,3.924806044E-2
2.036257640E1,-4.841103405E-2,-9.544762224E-2,1.934914142E-1
2.038203817E1,2.855792828E-2,-2.429714650E-1,1.824958473E-1
2.040149994E1,-2.397644334E-2,-3.216203153E-1,4.596757516E-2
2.042096171E1,-3.054323979E-2,-1.849393100E-1,5.650499370E-3
2.044042348E1,3.665188700E-2,2.046396956E-2,6.429351866E-2
2.045988525E1,8.368847519E-2,9.590577334E-2,1.291978955E-1
2.047934703E1,-1.572976820E-2,-7.696896046E-2,1.291978955E-1
2.049880880E1,-4.670061171E-1,-3.697259128E-1,-1.073594838E-1
2.051827057E1,-7.144063711E-1,-9.492838383E-1,-4.886918366E-1
2.053773234E1,-1.791360974E-1,-2.005774498E0,-5.076286197E-1
2.055719411E1,6.588176489E-1,-1.382997870E0,2.559523284E-1
2.057665588E1,3.660607338E-1,1.498451352E0,3.408625424E-1
2.059611765E1,4.893026948E-1,1.949574947E0,7.101303339E-2
2.061557942E1,8.255837560E-1,1.077565432E0,1.429423541E-1
2.063504130E1,5.664243698E-1,3.512472659E-2,1.434005052E-1
2.065450307E1,1.153007299E-1,-3.601047993E-1,1.082757786E-1
2.067396484E1,7.284562290E-2,-1.847865991E-2,-2.138026804E-2
2.069342661E1,1.262962967E-1,3.964512348E-1,-1.531743407E-1
2.071288838E1,5.772672221E-2,4.286743701E-1,-2.205221802E-1
2.073235015E1,7.941242307E-3,1.672242284E-1,-2.415970266E-1
2.075181192E1,1.087339297E-1,-8.002328873E-2,-1.484401375E-1
2.077127369E1,2.883281708E-1,-1.217148080E-1,-1.924224012E-2
2.079073546E1,3.135263622E-1,6.108647957E-2,9.162971750E-3
2.081019723E1,1.841757298E-1,1.857028902E-1,-2.596175298E-2
2.082965900E1,-4.459312931E-2,1.563813835E-1,-1.443168074E-1
2.084912078E1,-3.995055556E-1,-5.864302069E-2,-2.843575478E-1
2.086858255E1,-8.579595685E-1,-3.303251266E-1,-4.440986812E-1
2.088804432E1,-1.262962937E0,-5.311469436E-1,-5.384773016E-1
2.090750609E1,-9.734130502E-1,-6.979129910E-1,-1.601992846E-1
2.092696786E1,-3.651444316E-1,-6.317868829E-1,5.992583632E-1
2.094642963E1,1.050687432E-1,-6.282744408E-1,4.250091612E-1
2.096589140E1,2.547306120E-1,1.124143958E0,-3.840812445E-1
2.098535317E1,4.182896614E-1,1.365588188E0,-3.081812859E-1
2.100481505E1,5.300779343E-1,5.867356062E-1,-7.910698652E-2
2.102427682E1,6.304124594E-1,-1.331685185E-1,1.963930279E-1
2.104373859E1,7.431169748E-1,-4.130973220E-1,4.602866173E-1
2.106320036E1,8.017600179E-1,-2.651153207E-1,4.775435328E-1
2.108266213E1,5.459604263E-1,1.629481763E-1,2.796233594E-1
2.110212390E1,1.255327165E-1,4.210385382E-1,1.440113783E-1
2.112158567E1,-1.615737379E-1,5.477929711E-1,1.203403622E-1
2.114104744E1,-2.446513474E-1,4.972439408E-1,1.913533956E-1
2.116050921E1,-2.307541668E-1,4.005745649E-1,2.119700760E-1
2.117997098E1,-3.158170879E-1,2.431241870E-1,1.495091617E-1
2.119943275E1,-5.027416945E-1,9.162971377E-2,1.001818255E-1
2.121889452E1,-5.532907844E-1,9.743293375E-2,1.783725172E-1
2.123835630E1,-3.627009690E-1,2.962694131E-2,3.738492429E-1
2.125781807E1,-1.734855920E-1,-2.215912044E-1,4.454731345E-1
2.127727984E1,-2.463312149E-1,-5.913171172E-1,1.601992846E-1
2.129674161E1,-5.432115197E-1,-9.746347666E-1,-2.318231910E-1
2.131620338E1,-6.162098646E-1,-1.995695233E0,-4.857902229E-1
2.133566515E1,1.408043355E-1,-2.204916477E0,-1.298087649E-2
2.135512692E1,5.532907844E-1,1.398574948E0,-1.527161949E-4
2.137458880E1,6.768381596E-1,1.669798851E0,-1.469129771E-1
2.139405057E1,7.310523987E-1,8.022181988E-1,-1.122464016E-1
2.141351234E1,7.687733173E-1,1.725693047E-2,4.260781780E-2
2.143297411E1,6.869174242E-1,-5.186241865E-1,6.368265301E-2
2.145243588E1,5.685623884E-1,-4.807505906E-1,-3.008509055E-2
2.147189765E1,4.622719288E-1,-2.367101051E-2,-1.855501831E-1
2.149135942E1,2.686277926E-1,4.795288444E-1,-3.052796721E-1
2.151082119E1,3.787361458E-2,5.031998754E-1,-3.413206935E-1
2.153028296E1,-9.957095981E-2,1.800523996E-1,-3.623955250E-1
2.154974473E1,-9.392046183E-2,-1.673769504E-1,-3.436114490E-1
2.156920650E1,8.093958721E-3,-3.370446563E-1,-2.145662606E-1
2.158866828E1,5.803215317E-3,-1.907425225E-1,-9.376774728E-2
2.160813005E1,-1.531743407E-1,6.688969582E-2,-6.108647957E-2
2.162759182E1,-3.135263622E-1,1.954767257E-1,-1.094975099E-1
2.164705359E1,-4.550942481E-1,4.123337101E-3,-1.783725172E-1
2.166651536E1,-6.305651665E-1,-3.144426346E-1,-2.825249732E-1
2.168597713E1,-7.458658814E-1,-5.702422857E-1,-3.714057803E-1
2.170543890E1,-8.938478827E-1,-8.113811612E-1,-3.652971387E-1
2.172490067E1,-9.607375860E-1,-7.043271065E-1,-1.631008983E-1
2.174436244E1,-1.075732827E0,-5.593994260E-1,5.940660089E-2
2.176382421E1,-6.992874742E-1,-8.155044913E-1,2.895499170E-1
2.178328598E1,2.657261863E-2,6.652317643E-1,-6.414080039E-3
2.180274775E1,9.002619982E-1,8.411607742E-1,3.022253513E-1
2.182220952E1,1.412930250E0,4.983129501E-1,5.326740742E-1
2.184167140E1,6.667588949E-1,4.135554433E-1,6.366738081E-1
2.186113317E1,7.834340632E-2,4.560105503E-1,4.735729098E-1
2.188059494E1,8.429934084E-2,5.241219997E-1,2.719875574E-1
2.190005671E1,1.047633067E-1,6.939423680E-1,-1.252272818E-2
2.191951848E1,-8.124501258E-2,8.182533979E-1,-2.354883701E-1
2.193898025E1,-1.956294477E-1,5.652026534E-1,-1.670715213E-1
2.195844202E1,-6.414080411E-2,1.878409237E-1,2.000582218E-2
2.197790380E1,1.130099818E-1,-2.107483447E-1,9.651663154E-2
2.199736557E1,2.050978541E-1,-5.396990180E-1,4.734201822E-3
2.201682734E1,1.663079411E-1,-4.627300799E-1,-4.566214234E-2
2.203628911E1,6.062832847E-2,-1.250745654E-1,3.054323839E-3
2.205575088E1,-5.681042373E-2,1.974620372E-1,2.183841541E-2
2.207521265E1,-1.423314959E-1,2.828303874E-1,3.436114267E-2
2.209467442E1,-3.596466482E-1,6.429351866E-2,6.826414168E-2
2.211413619E1,-7.583886385E-1,-3.811796308E-1,3.298669681E-2
2.213359796E1,-5.939132571E-1,-1.710574150E0,-3.782780170E-1
2.215305973E1,9.865466505E-2,-2.523024321E0,-1.989891976E-1
2.217252150E1,-3.358229101E-1,8.987348080E-1,5.829176903E-1
2.219198328E1,1.075121984E-1,2.309985161E0,3.185659945E-1
2.221144505E1,8.521563411E-1,1.222340465E0,3.257436454E-1
2.223090682E1,8.071050644E-1,-3.665188793E-3,4.764745384E-2
2.225036859E1,3.538434207E-1,-5.112938285E-1,-1.913533956E-1
2.226983036E1,3.002400398E-1,-2.901607752E-1,-1.876882017E-1
2.228929213E1,4.555523992E-1,1.201876476E-1,-1.354592592E-1
2.230875400E1,3.058905303E-1,3.229947388E-1,-1.426369250E-1
2.232821578E1,9.117157012E-2,2.400698513E-1,-2.284634262E-1
2.234767755E1,2.255618125E-1,9.758564830E-2,-1.831067204E-1
2.236713932E1,4.809032977E-1,-7.070759684E-2,7.299833745E-2
2.238660109E1,4.914407134E-1,-7.024944760E-3,1.620318890E-1
2.240606286E1,3.051269650E-1,4.321868345E-2,1.435532235E-2
2.242552463E1,9.773836471E-3,-3.665188793E-3,-2.528980076E-1
2.244498640E1,-3.523162603E-1,-1.722638607E-1,-4.758636653E-1
2.246444817E1,-5.090031028E-1,-3.034470677E-1,-5.019781590E-1
2.248390994E1,-6.768381596E-1,-3.604102135E-1,-3.987419903E-1
2.250337171E1,-8.648318052E-1,-3.614792228E-1,-2.302960157E-1
2.252283348E1,-7.435751557E-1,-2.820668221E-1,8.460476995E-2
2.254229525E1,-5.323686600E-1,-5.546652079E-1,2.458730787E-1
2.256175703E1,-5.986474827E-2,-6.621774435E-1,7.651081681E-2
2.258121880E1,1.537852138E-1,6.288852692E-1,3.176496923E-2
2.260068057E1,4.689914286E-1,3.683514595E-1,1.194240674E-1
2.262014234E1,5.862774849E-1,-3.680460155E-2,1.931859851E-1
2.263960411E1,3.787361681E-1,-2.162461281E-1,3.208567202E-1
2.265906588E1,6.062832847E-2,-6.093376130E-2,4.053087831E-1
2.267852765E1,-1.765399277E-1,1.531743407E-1,3.791943192E-1
2.269798942E1,-2.997818887E-1,3.656025827E-1,2.258672565E-1
2.271745119E1,-2.967275679E-1,3.966039717E-1,5.894844979E-2
2.273691296E1,-2.449567765E-1,2.922987938E-1,-1.099556591E-2
2.275637473E1,-3.184132576E-1,1.693622619E-1,1.267544460E-2
2.277583650E1,-4.517345130E-1,-1.160643063E-2,2.550360374E-2
2.279529828E1,-4.874700904E-1,-1.656970680E-1,-2.901607659E-3
2.281476005E1,-4.589121640E-1,-1.803578287E-1,-4.276053514E-3
2.283422182E1,-3.584249020E-1,-5.497783050E-2,7.681624591E-2
2.285368359E1,-2.069304436E-1,4.871646687E-2,1.882990748E-1
2.287314536E1,-1.638644785E-1,-1.389717404E-2,2.186895907E-1
2.289260713E1,-4.883863926E-1,-1.194240674E-1,6.612611562E-2
2.291206890E1,-8.443678617E-1,-5.334376693E-1,-3.318522871E-1
2.293153067E1,-6.049088240E-1,-1.746004224E0,-6.210967898E-1
2.295099255E1,2.188423127E-1,-1.320995092E0,1.543960720E-1
2.297045432E1,5.442805290E-1,1.243720651E0,3.005454838E-1
2.298991609E1,4.126391709E-1,1.627496481E0,-5.833758786E-2
2.300937786E1,6.270527244E-1,7.078395486E-1,-2.672533318E-2
2.302883963E1,6.195695996E-1,-2.522871494E-1,1.641699076E-1
2.304830140E1,4.989238083E-1,-5.189296007E-1,1.937968582E-1
2.306776317E1,5.027416945E-1,-2.167042792E-1,4.993819445E-2
2.308722494E1,5.719221234E-1,2.206749022E-1,-1.122464016E-1
2.310668671E1,4.274526238E-1,4.463894367E-1,-2.284634262E-1
2.312614848E1,1.463021189E-1,2.018908113E-1,-2.840521336E-1
2.314561025E1,5.054906011E-2,-4.581485875E-3,-2.944368124E-1
2.316507202E1,2.110537887E-1,-8.475748450E-2,-1.117882580E-1
2.318453380E1,3.246746361E-1,6.933315098E-2,2.596175298E-2
2.320399557E1,2.167042792E-1,3.579667509E-1,2.871064469E-2
2.322345734E1,-1.191186346E-2,5.036579967E-1,-6.505709887E-2
2.324291911E1,-2.347247899E-1,4.844157696E-1,-1.689041108E-1
2.326238088E1,-3.193295598E-1,2.897026241E-1,-2.270889878E-1
2.328184265E1,-2.142608166E-1,-1.206457894E-2,-2.005163580E-1
2.330130442E1,-1.375972927E-1,-4.318813980E-1,-1.351538301E-1
2.332076619E1,-3.678933084E-1,-6.882919073E-1,-9.101885557E-2
2.334022796E1,-5.461131334E-1,-8.423825502E-1,5.268708616E-2
2.335968973E1,-7.710640430E-1,-6.696605086E-1,-5.192350596E-3
2.337915150E1,-2.545779049E-1,-5.403099060E-1,-6.414080411E-2
2.339861328E1,6.230821013E-1,1.299614757E-1,1.365282834E-1
2.341807505E1,4.772381186E-1,9.259182811E-1,9.010255337E-3
2.343753682E1,3.375027776E-1,3.767508566E-1,-9.269873053E-2
2.345699859E1,2.761108875E-1,-1.084284950E-2,7.620538026E-2
2.347646036E1,3.856084049E-1,-2.916879393E-2,2.922987938E-1
2.349592213E1,3.564395905E-1,1.218675226E-1,3.173442483E-1
2.351538390E1,1.860083193E-1,2.626718581E-1,1.889099330E-1
2.353484567E1,-4.535670951E-2,3.807214797E-1,4.245510325E-2
2.355430744E1,-2.133445293E-1,3.585776389E-1,-2.244928107E-2
2.357376921E1,-1.783725172E-1,4.108065739E-2,5.803215317E-3
2.359323098E1,-5.345067009E-3,-2.023489624E-1,1.771507785E-2
2.361269275E1,1.382081509E-1,-3.680460155E-1,-6.368265301E-2
2.363215452E1,2.170097083E-1,-4.066832364E-1,-6.352993846E-2
2.365161630E1,2.249509543E-1,-2.956585586E-1,8.170316368E-2
2.367107807E1,2.089157552E-1,-1.119409725E-1,2.214384824E-1
2.369053984E1,1.928805560E-1,4.077522457E-2,2.759581506E-1
2.371000161E1,6.841685623E-2,4.581485689E-2,1.565341055E-1
2.372946338E1,-1.631008983E-1,-2.047924101E-1,-3.588830680E-2
2.374892515E1,-3.746128380E-1,-1.039080977E0,-2.257145345E-1
2.376838692E1,-3.536907136E-1,-2.471100807E0,-3.090975881E-1
2.378784869E1,1.148425788E-1,-1.829387307E0,1.004872546E-1
2.380731057E1,1.608101577E-1,1.095127821E0,3.283398151E-1
2.382677234E1,-9.773836471E-3,1.832441568E0,4.276053514E-3
2.384623411E1,1.524107605E-1,1.358410597E0,-6.918043643E-2
2.386569588E1,2.701549530E-1,6.281217337E-1,5.436696485E-2
2.388515765E1,1.805105358E-1,-3.054323897E-4,1.466075480E-1
2.390461942E1,2.457203567E-1,9.789107740E-2,1.108719558E-1
2.392408119E1,3.897317350E-1,4.670061171E-1,-3.497200832E-2
2.394354296E1,3.020726442E-1,4.886918366E-1,-1.953240186E-1
2.396300473E1,3.878991306E-2,2.313650399E-1,-2.525925934E-1
2.398246650E1,-5.910116807E-2,-1.559232324E-1,-1.163697392E-1
2.400192828E1,6.490438432E-2,-3.688096106E-1,1.133154184E-1
2.402139005E1,1.530216336E-1,-1.252272725E-1,1.982256174E-1
2.404085182E1,6.215549260E-2,7.513637096E-2,1.313359290E-1
2.406031359E1,-2.409861535E-1,6.123919412E-2,-1.067486182E-1
2.407977536E1,-8.176425099E-1,-2.469420880E-1,-4.024071693E-1
2.409923713E1,-1.407432437E0,-5.366446972E-1,-6.015490890E-1
2.411869890E1,-1.863137603E0,-6.246092319E-1,-6.979129910E-1
2.413816067E1,-1.739895582E0,-7.350230217E-1,-5.204567909E-1
2.415762244E1,-1.302058220E0,-9.315688014E-1,1.017089859E-1
2.417708421E1,-4.747946560E-1,-2.177885771E0,7.921388745E-1
2.419654598E1,1.252272725E-1,3.608683646E-1,1.084285006E-1
2.421600775E1,4.963276386E-1,1.339626431E0,-1.038470119E-2
2.423546953E1,1.059544921E0,7.191405892E-1,6.032289565E-2
2.425493130E1,1.033277750E0,1.994473487E-1,2.489273995E-1
2.427439307E1,5.320632458E-1,1.826485693E-1,3.839285076E-1
2.429385484E1,8.536835015E-2,2.028071135E-1,4.566214085E-1
2.431331661E1,-9.666935354E-2,4.602866173E-1,3.049742281E-1
2.433277838E1,-3.436114267E-2,6.563742161E-1,2.428187430E-2
2.435224015E1,1.550069451E-1,5.732966065E-1,-1.403461844E-1
2.437170192E1,2.335030586E-1,3.387245238E-1,-1.282816082E-1
2.439116369E1,5.085449293E-2,8.338304609E-2,1.802051067E-2
2.441062546E1,-1.559232324E-1,-1.542433500E-1,3.711003438E-2
2.443008723E1,-2.131918073E-1,-1.705839932E-1,-2.825249545E-2
2.444954900E1,-1.385135949E-1,1.038470119E-2,-4.367683083E-2
2.446901078E1,8.002328873E-2,1.562286615E-1,2.443459071E-2
2.448847255E1,3.078758419E-1,1.304196268E-1,1.119409725E-1
2.450793432E1,9.315688163E-2,-1.337793916E-1,1.084284950E-2
2.452739609E1,-3.527744114E-1,-5.792525411E-1,-2.354883701E-1
2.454685786E1,-5.131264329E-1,-1.205388904E0,-3.559814394E-1
2.456631963E1,-1.313359290E-1,-1.573129535E0,-1.786779426E-2
2.458578140E1,4.106538594E-1,-2.539670467E-1,4.346303046E-1
2.460524317E1,4.434878230E-1,1.310610414E0,1.579085439E-1
2.462470494E1,6.493492723E-1,1.391244531E0,2.657261863E-2
2.464416671E1,7.070759535E-1,7.061597109E-1,2.018908113E-1
2.466362848E1,3.375027776E-1,3.726275265E-2,2.046397030E-1
2.468309025E1,1.010981202E-1,-3.158170879E-1,1.198822111E-1
2.470255203E1,3.164279461E-1,-1.241582632E-1,-1.527161989E-2
2.472201380E1,5.134318471E-1,2.350302190E-1,-1.627954692E-1
2.474147557E1,4.688387215E-1,4.031707644E-1,-2.897026241E-1
2.476093734E1,3.530798554E-1,2.730565667E-1,-3.300196826E-1
2.478039911E1,3.231474757E-1,9.010255337E-2,-2.643517256E-1
2.479986088E1,3.743073940E-1,-8.368847519E-2,-6.307178736E-2
2.481932265E1,3.559814394E-1,-1.756236330E-2,7.131846249E-2
2.483878442E1,1.910479665E-1,1.615737379E-1,7.208204269E-2
2.485824619E1,-6.872228533E-2,2.023489624E-1,-8.704823442E-3
2.487770796E1,-3.692677617E-1,8.872810751E-2,-1.689041108E-1
2.489716973E1,-6.224712133E-1,-5.177079141E-2,-3.281871080E-1
2.491663150E1,-7.736602426E-1,-1.511890292E-1,-4.132500291E-1
2.493609328E1,-8.449786901E-1,-3.069595397E-1,-4.039343297E-1
2.495555505E1,-9.353867173E-1,-5.688678026E-1,-3.486510813E-1
2.497501682E1,-1.093142509E0,-8.738420606E-1,-8.185587823E-2
2.499447859E1,-1.283121467E0,-9.865466356E-1,1.580612659E-1
2.501394036E1,-4.920515716E-1,-9.741765857E-1,5.574141070E-2
2.503340213E1,2.903134823E-1,8.605557680E-1,-4.520399496E-2
2.505286390E1,7.980948091E-1,8.274163604E-1,8.109229803E-2
2.507232567E1,8.599448800E-1,2.874118686E-1,5.621483326E-1
2.509178744E1,8.727730513E-1,1.945604384E-1,7.997747064E-1
2.511124921E1,8.191696405E-1,3.862192631E-1,5.920807123E-1
2.513071098E1,6.724094152E-1,3.848448098E-1,2.535088956E-1
2.515017275E1,4.900662601E-1,4.894554019E-1,-1.528689116E-1
2.516963453E1,2.203694731E-1,5.658134818E-1,-4.112647176E-1
2.518909630E1,-1.893680729E-2,4.147771895E-1,-3.628536761E-1
2.520855807E1,8.292489499E-2,1.447749585E-1,-2.199113183E-2
2.522801984E1,2.854265571E-1,-9.392046183E-2,2.599229515E-1
2.524748161E1,2.226602137E-1,-3.341430426E-1,2.044869810E-1
2.526694338E1,-4.046979174E-2,-3.937023580E-1,-8.994983882E-2
2.528640515E1,-1.968511790E-1,-2.808450758E-1,-3.092502952E-1
2.530586692E1,-2.518289983E-1,-6.093376130E-2,-2.553414702E-1
2.532532869E1,-2.868010104E-1,9.789107740E-2,-1.430950761E-1
2.534479046E1,-2.298378795E-1,2.794706449E-2,-2.596175298E-2
2.536425223E1,-3.697259128E-1,-3.330740333E-1,-5.543597788E-2
2.538371400E1,-5.984947681E-1,-1.084590435E0,-2.232710719E-1
2.540317578E1,6.368265301E-2,-2.672686100E0,-2.354883701E-1
2.542263755E1,2.516762912E-1,-7.405208349E-1,4.583013058E-1
2.544209932E1,4.306596518E-2,1.801898360E0,3.344484791E-2
2.546156109E1,4.459312856E-1,1.836106777E0,1.769980639E-1
2.548102286E1,7.176133990E-1,6.383537054E-1,4.292852283E-1
2.550048463E1,2.383899838E-1,-3.478874862E-1,2.648098767E-1
2.551994640E1,3.481929377E-2,-5.109884143E-1,1.760817766E-1
2.553940817E1,3.530798554E-1,-1.682932526E-1,9.361502528E-2
2.555886994E1,5.534434915E-1,2.625191510E-1,-2.336557768E-2
2.557833171E1,4.179842174E-1,4.243983030E-1,-1.681405306E-1
2.559779348E1,2.017380893E-1,2.518289983E-1,-2.603811026E-1
2.561725525E1,1.327103674E-1,2.855792828E-2,-1.788306683E-1
2.563671703E1,2.244928032E-1,-7.177661359E-2,6.704241037E-2
2.565617880E1,2.090684772E-1,1.214093715E-1,1.711948514E-1
2.567564057E1,5.650499370E-3,3.219257295E-1,1.291978955E-1
2.569510234E1,-3.266599476E-1,3.480401933E-1,-4.550942779E-2
2.571456411E1,-7.105884552E-1,1.482874304E-1,-2.533561587E-1
2.573402588E1,-9.605848789E-1,-1.320995092E-1,-3.582721949E-1
2.575348765E1,-8.878919482E-1,-3.622428179E-1,-3.086394370E-1
2.577294942E1,-8.765909672E-1,-5.873464942E-1,-2.312123179E-1
2.579241119E1,-9.153808951E-1,-1.011744738E0,2.138026757E-3
2.581187296E1,-5.998691916E-1,-1.657734275E0,3.570504785E-1
2.583133473E1,-1.661552191E-1,-1.618944407E0,2.075413018E-1
2.585079650E1,-1.554650813E-1,1.389564633E0,1.522580534E-1
2.587025828E1,-2.550360374E-2,1.107650518E0,1.238528341E-1
2.588972005E1,1.716530025E-1,4.983129501E-1,1.484401375E-1
2.590918182E1,4.123337269E-1,1.360701323E-1,2.787070572E-1
2.592864359E1,6.278162599E-1,5.833758786E-2,3.599520624E-1
2.594810536E1,6.145299673E-1,1.324049383E-1,3.277289569E-1
2.596756713E1,3.430005610E-1,3.665188551E-1,1.200349256E-1
2.598702890E1,-3.084867075E-2,5.448913574E-1,9.010255337E-3
2.600649067E1,-1.085812151E-1,5.429060459E-1,1.017089859E-1
2.602595244E1,9.468404204E-2,4.185950756E-1,2.593120933E-1
2.604541421E1,1.956294477E-1,2.411388755E-1,2.257145345E-1
2.606487598E1,1.235474050E-1,-6.872228812E-3,-1.282816008E-2
2.608433775E1,6.276635826E-2,-1.551596522E-1,-1.368337125E-1
2.610379953E1,7.192932814E-2,-1.481347084E-1,-1.649334840E-2
2.612326130E1,1.608101577E-1,-7.635809598E-4,2.028071135E-1
2.614272307E1,2.344193608E-1,4.260781780E-2,2.828303874E-1
2.616218484E1,-1.585194170E-1,-2.222020626E-1,1.061377525E-1
2.618164661E1,-9.468404055E-1,-1.085506678E0,-4.289797843E-1
2.620110838E1,-1.056490660E0,-2.416581154E0,-7.625119686E-1
2.622057015E1,-4.092793912E-2,-1.464395642E0,6.383536756E-2
2.624003192E1,6.989820004E-1,1.286175847E0,2.942841053E-1
2.625949369E1,7.391464114E-1,1.667050004E0,1.368337125E-1
2.627895546E1,5.682569742E-1,1.003192663E0,-2.321286127E-2
2.629841723E1,2.838993967E-1,1.203403622E-1,3.359756246E-2
2.631787900E1,9.285144508E-2,-2.933678031E-1,9.773836285E-2
2.633734078E1,1.598938555E-1,-1.904370934E-1,-3.665188700E-2
2.635680255E1,3.358229101E-1,7.254019380E-2,-1.835648715E-1
2.637626432E1,2.880227566E-1,1.902843714E-1,-3.039052188E-1
2.639572609E1,-4.245510325E-2,1.059850380E-1,-4.118755758E-1
2.641518786E1,-2.478583902E-1,9.605848789E-2,-4.007273018E-1
2.643464963E1,1.970038936E-2,1.064431891E-1,-1.443168074E-1
2.645411140E1,4.108065665E-1,2.855792828E-2,1.397353113E-1
2.647357317E1,4.358520210E-1,5.177079141E-2,2.105956376E-1
2.649303494E1,1.240055487E-1,8.750637621E-2,7.299833745E-2
2.651249671E1,-2.631300092E-1,9.987638891E-2,-1.618791670E-1
2.653195848E1,-5.965094566E-1,6.750056148E-2,-3.524689674E-1
2.655142025E1,-7.906117439E-1,-7.513637096E-2,-4.089739621E-1
2.657088203E1,-8.596394658E-1,-3.295615613E-1,-3.591884971E-1
2.659034369E1,-9.712749720E-1,-5.412262082E-1,-2.689332068E-1
2.660980546E1,-9.882264733E-1,-6.394227147E-1,-5.910116807E-2
2.662926723E1,-1.428812742E0,-6.233875155E-1,6.582067907E-2
2.664872900E1,-1.793804407E0,-8.107702732E-1,-4.132500291E-1
2.666819078E1,-6.162098646E-1,-1.079398036E0,-6.466003656E-1
2.668765255E1,3.280344009E-1,6.652317643E-1,-4.260781780E-2
2.670711432E1,8.588758707E-1,7.189878225E-1,5.910116807E-2
2.672657609E1,1.275943756E0,2.800815105E-1,2.745837271E-1
2.674603786E1,1.278234601E0,6.979130208E-2,4.056142271E-1
2.676549963E1,9.169080257E-1,1.189659163E-1,3.848448098E-1
2.678496140E1,4.176788032E-1,1.001818255E-1,2.930623889E-1
2.680442317E1,1.453858167E-1,1.759290546E-1,1.180496216E-1
2.682388494E1,1.259908676E-1,3.132209182E-1,-1.114828233E-2
2.684334671E1,2.487746775E-1,3.101665974E-1,-1.114828233E-2
2.686280848E1,3.953822255E-1,1.689041108E-1,8.979712427E-2
2.688227025E1,3.572031856E-1,-6.093376130E-2,1.641699076E-1
2.690173202E1,2.159406990E-1,-2.301433086E-1,7.192932814E-2
2.692119380E1,2.825249545E-2,-2.382372618E-1,-1.646280587E-1
2.694065557E1,-1.033888608E-1,-2.012799382E-1,-3.271180987E-1
2.696011734E1,-1.014035568E-1,-1.203403622E-1,-3.101665974E-1
2.697957911E1,-9.605848789E-2,-5.268708616E-2,-2.191477418E-1
2.699904088E1,-1.139262840E-1,-5.268708616E-2,-1.421787739E-1
2.701850265E1,-1.078176349E-1,-1.695149690E-1,-2.916879393E-2
2.703796442E1,-3.553705812E-1,-4.717403352E-1,-4.581485991E-4
2.705742619E1,-5.499309897E-1,-1.171638608E0,-8.933897316E-2
2.707688796E1,-4.531089365E-1,-2.229503632E0,-2.426660359E-1
2.709634973E1,-3.908007443E-1,-2.092059135E0,-2.000582218E-2
2.711581150E1,-2.651153207E-1,1.029001713E0,5.074759126E-1
2.713527328E1,1.828012913E-1,1.834121466E0,3.517054021E-1
2.715473505E1,6.299542785E-1,1.484859586E0,2.064722925E-1
2.717419682E1,6.386591196E-1,9.387464523E-1,1.075121984E-1
2.719365859E1,3.845393658E-1,3.982838392E-1,1.136208475E-1
2.721312036E1,3.917170465E-1,2.365573794E-1,2.037234008E-1
2.723258213E1,5.045742989E-1,3.549124300E-1,2.081521749E-1
2.725204390E1,3.909534514E-1,5.170970559E-1,1.058323234E-1
2.727150567E1,1.634063274E-1,4.873173833E-1,-2.825249545E-2
2.729096744E1,4.764745384E-2,3.628536761E-1,-1.026252806E-1
2.731042921E1,1.029307172E-1,1.954767257E-1,-1.217148080E-1
2.732989088E1,2.364046723E-1,-1.771507785E-2,-9.773836471E-3
2.734935265E1,3.347539008E-1,5.345067009E-3,1.235474050E-1
2.736881442E1,3.295615613E-1,9.498947114E-2,1.475238502E-1
2.738827619E1,1.893680841E-1,1.467602700E-1,5.619955808E-2
2.740773796E1,-8.093958348E-2,1.592829973E-1,-9.285144508E-2
2.742719973E1,-4.164570570E-1,1.154534444E-1,-2.432768941E-1
2.744666150E1,-6.099484563E-1,2.015853859E-2,-3.178023994E-1
2.746612328E1,-6.006327868E-1,-1.467602700E-1,-3.069595397E-1
2.748558505E1,-7.139481902E-1,-4.031707644E-1,-2.645044625E-1
2.750504682E1,-1.012966514E0,-6.973021626E-1,-1.015562713E-1
2.752450859E1,-1.619555235E0,-1.064126492E0,-2.504545636E-2
2.754397036E1,-1.177747250E0,-1.906508923E0,-5.422952175E-1
2.756343213E1,1.398880333E-1,5.351175666E-1,-3.817904741E-2
2.758289390E1,3.405571282E-1,8.616247773E-1,-2.214384824E-2
2.760235567E1,6.443096399E-1,3.573558927E-1,-7.024944760E-3
2.762181744E1,9.159917235E-1,3.649916872E-2,2.548833191E-1
2.764127921E1,8.833104968E-1,1.568395346E-1,5.166388750E-1
2.766074098E1,4.505127668E-1,2.753472924E-1,6.165152788E-1
2.768020275E1,-8.246674389E-2,3.593412042E-1,5.125155449E-1
2.769966453E1,-3.252854943E-1,3.840812445E-1,2.727511227E-1
2.771912630E1,-2.877173126E-1,2.744309902E-1,6.826414168E-2
2.773858807E1,-9.789107740E-2,1.572976857E-1,-5.115992576E-2
2.775804984E1,9.162971377E-2,1.786779426E-2,-3.420842811E-2
2.777751161E1,1.620318890E-1,-1.623373181E-1,6.643154472E-2
2.779697338E1,5.054906011E-2,-3.872882724E-1,8.536835015E-2
2.781643515E1,-1.838703007E-1,-4.298960865E-1,-7.910698652E-2
2.783589692E1,-3.474293351E-1,-3.165806830E-1,-2.875646055E-1
2.785535859E1,-3.229947388E-1,-1.863137633E-1,-3.245218992E-1
2.787482036E1,-2.037234008E-1,-7.849612087E-2,-2.194531709E-1
2.789428213E1,-1.024725661E-1,-8.338304609E-2,-8.017600328E-2
2.791374390E1,-2.805396616E-1,-2.306014597E-1,2.611446939E-2
2.793320567E1,-7.447968721E-1,-1.085506678E0,6.505709887E-2
2.795266744E1,-7.999274135E-1,-1.623983979E0,-2.009745091E-1
2.797212921E1,-1.831067204E-1,-1.191644430E0,-2.849684060E-1
2.799159098E1,7.284562290E-2,6.029235125E-1,7.376192510E-2
2.801105275E1,1.863137633E-1,2.009745121E0,1.817322671E-1
2.803051452E1,2.820668221E-1,1.387426615E0,1.191186346E-2
2.804997630E1,5.780308247E-1,5.760455132E-1,8.704823256E-2
2.806943807E1,4.853320718E-1,1.401934624E-1,1.672242284E-1
2.808889984E1,3.378082216E-1,2.026543915E-1,5.925388262E-2
2.810836161E1,4.361574650E-1,4.109592736E-1,-6.872228812E-3
2.812782338E1,5.580250025E-1,5.154171586E-1,1.527161949E-4
2.814728515E1,5.287034512E-1,5.561923981E-1,-5.803215317E-3
2.816674692E1,3.515526950E-1,4.607447684E-1,-4.123337194E-2
2.818620869E1,1.340848207E-1,3.990474045E-1,-3.008509055E-2
2.820567046E1,8.933897316E-2,3.118464649E-1,4.581485991E-4
2.822513223E1,1.429423541E-1,1.589775532E-1,5.772672221E-2
2.824459400E1,1.496618688E-1,1.670715213E-1,9.514218569E-2
2.826405567E1,6.948586553E-2,1.904370934E-1,5.604684353E-2
2.828351744E1,-5.696314201E-2,2.287688553E-1,-3.695731983E-2
2.830297921E1,-2.159406990E-1,2.090684772E-1,-1.418733448E-1
2.832244098E1,-3.631591201E-1,1.456912458E-1,-1.892153621E-1
2.834190275E1,-3.807214797E-1,7.696896046E-2,-2.061668634E-1
2.836136453E1,-3.272708058E-1,-7.941242307E-2,-1.826485693E-1
2.838082630E1,-5.824595690E-1,-4.057669342E-1,-1.840230078E-1
2.840028807E1,-9.857830405E-1,-7.463240623E-1,-1.029307172E-1
2.841974984E1,-1.404530883E0,-9.853248596E-1,4.459312931E-2
2.843921161E1,-1.380249023E0,-1.472031355E0,-3.144426346E-1
2.845867338E1,-4.248564541E-1,-3.817904890E-1,-2.408334464E-1
2.847813515E1,1.064431891E-1,1.034804940E0,-5.711585656E-2
2.849759692E1,4.723511934E-1,5.366446972E-1,-7.696896046E-2
2.851705869E1,1.002887249E0,3.604102135E-2,1.455385387E-1
2.853652046E1,1.149800181E0,9.651663154E-2,3.706422150E-1
2.855598223E1,9.312633276E-1,2.892444730E-1,4.599811733E-1
2.857544400E1,5.983420610E-1,2.948949635E-1,4.448622763E-1
2.859490578E1,3.437641561E-1,1.748600453E-1,3.605629504E-1
2.861436755E1,1.169806048E-1,5.207622424E-2,1.476765573E-1
2.863382932E1,-5.513054505E-2,-2.748891525E-2,-5.803215317E-3
2.865329109E1,-8.414662629E-2,-7.086031139E-2,4.886918236E-3
2.867275275E1,-3.329212964E-2,-9.392046183E-2,7.299833745E-2
2.869221452E1,4.886918236E-3,-1.664606482E-1,8.735366166E-2
2.871167630E1,-3.069595434E-2,-2.725984156E-1,1.664606482E-2
2.873113807E1,-1.498145908E-1,-3.459021747E-1,-1.337793916E-1
2.875059984E1,-1.243109852E-1,-2.823722363E-1,-1.563813835E-1
2.877006161E1,7.299833745E-2,-1.907425225E-1,4.627300799E-2
2.878952338E1,2.637408674E-1,-1.174387559E-1,2.588539422E-1
2.880898515E1,3.715584874E-1,-5.589412898E-2,3.669770062E-1
2.882844692E1,1.834121495E-1,-1.284343153E-1,2.793179154E-1
2.884790869E1,-3.019199073E-1,-2.651153207E-1,4.825831577E-2
2.886737046E1,-9.120211005E-1,-8.503237963E-1,-4.169152081E-1
2.888683223E1,-1.033430457E0,-1.571144223E0,-7.939714789E-1
2.890629400E1,-8.587231636E-1,-6.171261668E-1,-9.422589093E-2
2.892575578E1,-6.411026120E-1,6.004800797E-1,4.604393244E-1
2.894521755E1,-6.496546865E-1,4.723511934E-1,7.745765448E-1
2.896467932E1,3.347539008E-1,1.139568210E0,1.878409237E-1
2.898414109E1,1.274111271E0,1.439960957E0,1.145371497E-1
2.900360286E1,7.690787315E-1,9.827287197E-1,8.857538924E-3
2.902306463E1,-9.728021920E-2,2.151771188E-1,-1.401934624E-1
2.904252640E1,-3.071122766E-1,-3.245218992E-1,-2.157879770E-1
2.906198817E1,-3.558287397E-2,-5.218312144E-1,-2.420551628E-1
2.908144984E1,2.553414702E-1,-5.056433082E-1,-1.719584316E-1
2.910091161E1,4.796815813E-1,-6.154462695E-1,1.588248461E-2
2.912037338E1,6.279689670E-1,-7.226530313E-1,1.108719558E-1
2.913983515E1,6.603448391E-1,-5.195404887E-1,6.612611562E-2
2.915929692E1,5.647444725E-1,-2.721402645E-1,3.604102135E-2
2.917875869E1,3.969093859E-1,8.704823256E-2,-1.282816008E-2
2.919822046E1,2.405280024E-1,5.558869243E-1,-5.910116807E-2
2.921768223E1,1.944077164E-1,6.875283122E-1,-7.269290835E-2
2.923714400E1,2.498437017E-1,6.331613660E-1,-3.680460155E-2
2.925660578E1,2.848156989E-1,3.772090077E-1,1.114828233E-2
2.927606755E1,1.992946416E-1,8.109229803E-2,-7.788525894E-3
2.929552932E1,7.040216774E-2,-1.047633067E-1,-7.376192510E-2
2.931499109E1,3.054323839E-3,-1.492037177E-1,-1.310304999E-1
2.933445286E1,-7.024944760E-3,-7.269290835E-2,-1.488982886E-1
2.935391463E1,-1.328630932E-2,4.795288667E-2,-1.157588735E-1
2.937337640E1,-4.932733253E-2,1.450803876E-1,-7.742711157E-2
2.939283817E1,-1.175914705E-1,2.263254076E-1,-9.376774728E-2
2.941229994E1,-1.702785641E-1,2.400698513E-1,-1.264490038E-1
2.943176171E1,-1.579085439E-1,2.058614343E-1,-1.331685185E-1
2.945122348E1,-9.758564830E-2,1.569922417E-1,-9.086613357E-2
2.947068525E1,-3.466657549E-2,1.168278903E-1,-3.390299529E-2
2.949014703E1,-1.435532235E-2,9.941824526E-2,1.237001177E-2
2.950960880E1,-4.886918142E-2,1.014035568E-1,3.588830680E-2
2.952907046E1,-1.039997265E-1,1.171333194E-1,2.107483521E-2
2.954853223E1,-1.406516135E-1,1.362228394E-1,-3.054323897E-4
2.956799400E1,-1.490510106E-1,1.250745654E-1,-3.207040019E-3
2.958745578E1,-1.421787739E-1,6.688969582E-2,9.162971983E-4
2.960691755E1,-1.200349256E-1,2.886336111E-2,3.878991306E-2
2.962637932E1,-1.117882580E-1,4.077522457E-2,6.001746282E-2
2.964584109E1,-1.426369250E-1,1.511890348E-2,-3.665188793E-3
2.966530286E1,-9.941824526E-2,-1.893680729E-2,-1.099556610E-1
2.968476463E1,-6.704241037E-2,-4.871646687E-2,-9.865466505E-2
2.970422640E1,2.000582218E-2,4.352411628E-2,-2.748891525E-2
2.972368817E1,3.726275265E-2,7.086031139E-2,4.230238497E-2
2.974314994E1,5.314523727E-2,5.528326333E-2,9.162971983E-4
2.976261171E1,3.711003438E-2,3.772090003E-2,-6.414080411E-2
2.978207348E1,-9.621120058E-3,5.665770918E-2,-7.849612087E-2
2.980153525E1,-9.162971750E-3,9.819651395E-2,-8.399390616E-3
2.982099702E1,3.695731983E-2,1.269071549E-1,5.650499091E-2
2.984045880E1,6.520981342E-2,1.786779463E-1,6.459894776E-2
2.985992057E1,5.283980444E-2,1.722638607E-1,3.619373962E-2
2.987938234E1,2.855792828E-2,1.586721241E-1,1.084284950E-2
2.989884411E1,2.580903657E-2,1.572976857E-1,1.832594397E-3
2.991830588E1,3.069595434E-2,1.368337125E-1,1.725693047E-2
2.993776765E1,3.329212964E-2,1.049160287E-1,4.917461425E-2
2.995722942E1,2.977965772E-2,4.657844082E-2,7.574722916E-2
2.997669119E1,1.710421406E-2,-1.343902480E-2,7.819069177E-2
2.999615286E1,-9.010255337E-3,-8.628465235E-2,8.399390429E-2
3.001561463E1,-6.490438432E-2,-1.272125840E-1,8.445205539E-2
3.003507640E1,-1.369864196E-1,-1.377500147E-1,5.894844979E-2
3.005453817E1,-1.734855920E-1,-9.193515033E-2,3.191768378E-2
3.007399994E1,-1.829539984E-1,-4.627300799E-2,2.290742844E-2
3.009346171E1,-1.762344837E-1,-4.230238497E-2,2.611446939E-2
3.011292348E1,-1.701258421E-1,-8.567378670E-2,2.764163166E-2
3.013238525E1,-1.600465775E-1,-1.206457913E-1,2.932151034E-2
3.015184703E1,-1.435532272E-1,-1.305723488E-1,3.741546720E-2
3.017130880E1,-1.366809905E-1,-1.188132018E-1,4.291325063E-2
3.019077057E1,-1.285870373E-1,-9.957095981E-2,4.413498193E-2
3.021023234E1,-1.183550507E-1,-1.047633067E-1,4.825831577E-2
3.022969411E1,-1.143844277E-1,-1.446222365E-1,5.589412898E-2
3.024915588E1,-1.229365394E-1,-1.947131455E-1,5.849030241E-2
3.026861765E1,-1.394298822E-1,-2.296851575E-1,6.185005978E-2
3.028807942E1,-1.577558219E-1,-2.316704690E-1,7.238747925E-2
3.030754119E1,-1.681405306E-1,-2.165515572E-1,8.170316368E-2
3.032700296E1,-1.574503928E-1,-2.029598206E-1,8.429934084E-2
3.034646473E1,-1.379027218E-1,-1.905898154E-1,7.360920310E-2
3.036592650E1,-1.096502244E-1,-1.742491722E-1,7.269290835E-2
3.038538828E1,-7.666353136E-2,-1.461493969E-1,8.628465235E-2
3.040484994E1,-3.802633286E-2,-1.368337125E-1,1.039997265E-1
3.042431171E1,2.871064469E-2,-1.452330947E-1,9.804379940E-2
3.044377348E1,1.293506175E-1,-1.388190240E-1,4.841103405E-2
3.046323525E1,2.700022459E-1,-8.781181276E-2,-4.230238497E-2
3.048269702E1,3.923279047E-1,1.145371422E-2,-1.487455666E-1
3.050215880E1,4.153880477E-1,5.497783050E-2,-2.196058929E-1
3.052162057E1,3.359756172E-1,-3.252854943E-2,-2.183841616E-1
3.054108234E1,2.070831656E-1,-2.138026655E-1,-1.734855920E-1
3.056054411E1,9.300415963E-2,-2.528980076E-1,-1.197294965E-1
3.058000588E1,6.291907281E-2,-8.353576064E-2,-2.168569900E-2
3.059946765E1,1.058323234E-1,1.206457913E-1,6.475166976E-2
3.061892942E1,1.667660922E-1,1.609628648E-1,9.804379940E-2
3.063839119E1,1.853974611E-1,9.315688163E-2,1.240055487E-1
3.065785296E1,1.789833754E-1,-1.130099874E-2,1.498145908E-1
3.067731473E1,1.557705253E-1,-1.261435747E-1,1.779143661E-1
3.069677650E1,9.117157012E-2,-1.617264450E-1,1.707367003E-1
3.071623828E1,2.993237413E-2,-1.261435747E-1,1.348484010E-1
3.073570005E1,-2.214384824E-2,-4.764745384E-2,9.987638891E-2
3.075516182E1,-6.200277433E-2,3.390299529E-2,5.635227636E-2
3.077462359E1,-6.322450191E-2,8.964440972E-2,1.374445762E-2
3.079408536E1,-1.725693047E-2,8.491020650E-2,-8.552107029E-3
3.081354713E1,4.092793912E-2,4.459312931E-2,-2.092211880E-2
3.083300890E1,9.376774728E-2,7.635809598E-4,-3.344484791E-2
3.085247067E1,1.085812151E-1,-1.191186346E-2,-6.902772188E-2
3.087193244E1,7.177661359E-2,-1.970038936E-2,-9.361502528E-2
3.089139421E1,1.450803876E-2,-5.696314201E-2,-8.353576064E-2
3.091085598E1,-7.987056673E-2,-8.567378670E-2,-8.613193035E-2
3.093031765E1,-2.081521749E-1,-3.558287397E-2,-1.368337125E-1
3.094977942E1,-2.976438701E-1,5.589412898E-2,-1.805105358E-1
3.096924119E1,-3.394880891E-1,1.130099818E-1,-1.864664704E-1
3.098870296E1,-3.924806118E-1,1.232419685E-1,-1.476765573E-1
3.100816473E1,-4.644099474E-1,1.421787739E-1,-9.605848789E-2
3.102762650E1,-4.535670877E-1,1.169806048E-1,-3.878991306E-2
3.104708828E1,-3.585776389E-1,6.246092543E-2,2.199113183E-2
3.106655005E1,-2.707658112E-1,2.474002354E-2,7.040216774E-2
3.108601182E1,-1.919642538E-1,-5.177079141E-2,1.162170246E-1
3.110547359E1,-1.029307172E-1,-9.498947114E-2,1.537852138E-1
3.112493536E1,-1.679878123E-2,-4.856374860E-2,1.802051067E-1
3.114439713E1,2.122755162E-2,8.246674202E-3,2.072358727E-1
3.116385890E1,-8.353576064E-2,5.803215504E-2,1.288924664E-1
3.118332067E1,-2.588539422E-1,1.695149764E-2,-5.253437161E-2
3.120278244E1,-3.824013472E-1,-7.208204269E-2,-2.321286201E-1
3.122224421E1,-3.993528485E-1,-2.021962404E-1,-3.109301627E-1
3.124170598E1,-3.866774142E-1,-3.248273432E-1,-2.733619809E-1
3.126116775E1,-3.901898861E-1,-3.889681399E-1,-1.902843714E-1
3.128062953E1,-3.512472510E-1,-4.069886506E-1,-1.120936871E-1
3.130009130E1,-2.356410921E-1,-4.256200492E-1,-5.528326333E-2
3.131955307E1,-8.949168772E-2,-4.963276386E-1,-4.718930274E-2
3.133901484E1,3.863719851E-2,-6.304124594E-1,-9.590577334E-2
3.135847661E1,1.256854236E-1,-7.208204269E-1,-1.728747338E-1
3.137793838E1,1.102610901E-1,-6.265945435E-1,-2.434296161E-1
3.139740005E1,2.367101051E-2,-4.795288444E-1,-2.900080681E-1
3.141686182E1,-5.665770918E-2,-4.451677203E-1,-3.252854943E-1
3.143632359E1,-8.720094711E-2,-5.438223481E-1,-3.420842886E-1
3.145578536E1,-1.047633067E-1,-7.336485982E-1,-3.495673835E-1
3.147524713E1,-1.174387559E-1,-9.132428169E-1,-3.430005610E-1
3.149470890E1,-1.007926911E-1,-9.758564830E-1,-3.220784664E-1
3.151417067E1,-5.131264031E-2,-8.831577301E-1,-2.883281708E-1
3.153363244E1,5.375609919E-2,-7.079922557E-1,-2.428187430E-1
3.155309421E1,2.211330533E-1,-5.732966065E-1,-1.711948514E-1
3.157255598E1,3.837758005E-1,-5.227475166E-1,-7.284562290E-2
3.159201775E1,4.581485987E-1,-5.015199780E-1,2.519817278E-2
3.161147953E1,4.550942481E-1,-4.784598351E-1,8.155044913E-2
3.163094130E1,4.656316638E-1,-4.922043085E-1,1.093447953E-1
3.165040307E1,5.094612241E-1,-6.015490890E-1,1.253799945E-1
3.166986484E1,5.407680273E-1,-7.629700899E-1,1.548542231E-1
3.168932661E1,4.799869955E-1,-8.880446553E-1,1.505781710E-1
3.170878838E1,3.271180987E-1,-9.563088417E-1,1.036942974E-1
3.172825015E1,1.621845961E-1,-9.723440409E-1,3.283398226E-2
3.174771192E1,5.238165334E-2,-9.447023869E-1,-2.092211880E-2
3.176717369E1,2.367101051E-2,-8.837686181E-1,-1.710421406E-2
3.178663546E1,5.360338464E-2,-8.112284541E-1,2.229656465E-2
3.180609723E1,1.247691289E-1,-7.767145634E-1,4.520399496E-2
3.182555890E1,2.199113220E-1,-7.773254514E-1,3.008509055E-2
3.184502067E1,2.956585586E-1,-7.525854111E-1,-1.832594397E-3
3.186448244E1,2.939786613E-1,-7.141009569E-1,-3.176496923E-2
3.188394421E1,2.535088956E-1,-6.452259421E-1,-3.390299529E-2
3.190340598E1,2.220493406E-1,-5.561923981E-1,-6.719512399E-3
3.192286775E1,1.980729103E-1,-5.077813268E-1,2.015853859E-2
3.194232952E1,1.817322671E-1,-4.725039005E-1,2.138026804E-2
3.196179130E1,1.881463528E-1,-3.976729810E-1,8.399390616E-3
3.198125307E1,1.950185746E-1,-3.025307953E-1,-7.483093534E-3
3.200071484E1,1.820377111E-1,-2.223547846E-1,-1.511890348E-2
3.202017661E1,1.591302752E-1,-1.716530025E-1,-1.817322709E-2
3.203963838E1,1.350011230E-1,-1.249218509E-1,-3.039052337E-2
3.205910015E1,1.085812151E-1,-6.872228533E-2,-4.413498193E-2
3.207856192E1,8.277218044E-2,-1.145371422E-2,-5.054906011E-2
3.209802369E1,7.422006875E-2,1.954767294E-2,-4.886918142E-2
3.211748546E1,8.093958348E-2,2.092211880E-2,-4.291325063E-2
3.213694723E1,8.063415438E-2,1.191186346E-2,-3.848448023E-2
3.215640900E1,7.009673119E-2,2.901607659E-3,-3.375028074E-2
3.217587078E1,5.619955808E-2,6.719512399E-3,-3.069595434E-2
3.219533255E1,4.291325063E-2,2.244928107E-2,-3.420842811E-2
3.221479432E1,4.077522457E-2,3.313941509E-2,-3.787361458E-2
3.223425609E1,4.993819445E-2,3.298669681E-2,-3.558287397E-2
3.225371786E1,6.322450191E-2,2.657261863E-2,-2.840521187E-2
3.227317963E1,8.368847519E-2,2.000582218E-2,-1.924224012E-2
3.229264140E1,8.338304609E-2,1.725693047E-2,-2.474002354E-2
3.231210317E1,4.932733253E-2,2.015853859E-2,-2.458730713E-2
3.233156484E1,2.412915789E-2,1.069013379E-3,-9.621120058E-3
3.235102661E1,2.244928107E-2,-1.038470119E-2,-4.581485991E-4
3.237048838E1,2.015853859E-2,-1.618791744E-2,-3.207040019E-3
3.238995015E1,1.786779426E-2,-1.481347065E-2,-5.650499370E-3
3.240941192E1,1.847865991E-2,-1.038470119E-2,1.527161920E-3
3.242887369E1,1.725693047E-2,-1.634063199E-2,1.023198478E-2
3.244833546E1,1.145371422E-2,-3.222311661E-2,1.527161989E-2
3.246779723E1,-3.054323897E-4,-2.672533318E-2,1.359174121E-2
3.248725900E1,-1.756236330E-2,-6.261364091E-3,1.206457894E-2
3.250672078E1,-2.321286127E-2,1.557705179E-2,1.527161989E-2
3.252618255E1,-7.483093534E-3,1.359174121E-2,2.901607752E-2
3.254564432E1,1.542433538E-2,-9.773836471E-3,3.405570984E-2
3.256510609E1,2.947422490E-2,-2.871064469E-2,2.748891525E-2
3.258456786E1,3.008509055E-2,-2.611446939E-2,5.955931731E-3
3.260402963E1,3.084867075E-2,-9.162971750E-3,-8.857538924E-3
3.262349140E1,3.756818548E-2,2.290742937E-3,-6.872228812E-3
3.264295317E1,4.398226365E-2,1.160643063E-2,3.207040019E-3
3.266241494E1,4.138609022E-2,2.107483521E-2,2.748891478E-3
3.268187671E1,2.947422490E-2,2.214384824E-2,-8.246674202E-3
3.270133848E1,9.468403645E-3,1.496618707E-2,-2.367101051E-2
3.272080025E1,-9.926552884E-3,1.069013402E-2,-2.535088919E-2
3.274026192E1,-9.315688163E-3,9.621120058E-3,-1.786779426E-2
3.275972369E1,-4.886918236E-3,1.863137633E-2,-1.603520103E-2
3.277918546E1,2.443459118E-3,3.268126398E-2,-1.328630932E-2
3.279864723E1,1.267544460E-2,1.664606482E-2,-1.007926930E-2
3.281810900E1,1.572976820E-2,1.404988952E-2,-2.031125315E-2
3.283757078E1,2.122755162E-2,3.222311661E-2,-3.420842811E-2
3.285703255E1,3.955349326E-2,5.085449293E-2,-3.970621154E-2
3.287649432E1,5.879573524E-2,6.047561392E-2,-3.329212964E-2
3.289595609E1,7.208204269E-2,4.902189970E-2,-2.138026804E-2
3.291541786E1,7.788526267E-2,2.443459071E-2,-1.069013402E-2
3.293487963E1,7.681624591E-2,1.786779426E-2,-8.857538924E-3
3.295434140E1,7.345648855E-2,1.970038936E-2,-7.483093534E-3
3.297380317E1,7.192932814E-2,1.954767294E-2,-2.443459118E-3
3.299326494E1,6.948586553E-2,2.229656465E-2,-6.108647794E-4
3.301272671E1,7.101303339E-2,2.107483521E-2,-1.527161949E-4
3.303218848E1,7.269290835E-2,1.374445762E-2,-7.177661173E-3
3.305165025E1,6.948586553E-2,2.596175298E-3,-1.343902480E-2
3.307111203E1,6.658425927E-2,-5.650499370E-3,-1.404988952E-2
3.309057380E1,6.185005978E-2,-9.162971750E-3,-9.162971750E-3
3.311003557E1,5.604684353E-2,-3.359756200E-3,-7.330377586E-3
3.312949734E1,4.856374860E-2,6.872228812E-3,-8.399390616E-3
3.314895911E1,3.848448023E-2,9.010255337E-3,-1.206457894E-2
3.316842078E1,2.672533318E-2,1.847865991E-2,-1.160643063E-2
3.318788255E1,1.878409274E-2,2.229656465E-2,-5.955931731E-3
3.320734432E1,2.122755162E-2,2.076940238E-2,2.138026757E-3
3.322680609E1,1.237001177E-2,2.474002354E-2,3.512472380E-3
3.324626786E1,3.817904973E-3,3.390299529E-2,7.941242307E-3
3.326572963E1,3.359756200E-3,2.428187430E-2,1.527161989E-2
3.328519140E1,-4.123337101E-3,1.404988952E-2,1.542433538E-2
3.330465317E1,-2.061668597E-2,1.267544460E-2,1.374445762E-2
3.332411494E1,-2.794706449E-2,1.237001177E-2,1.695149764E-2
3.334357671E1,-2.687804960E-2,1.145371422E-2,2.138026804E-2
3.336303848E1,-2.535088919E-2,5.345067009E-3,2.336557768E-2
3.338250025E1,-2.260199748E-2,1.221729559E-3,2.275471389E-2
3.340196202E1,-1.863137633E-2,6.261364091E-3,2.046396956E-2
3.342142380E1,-1.069013402E-2,1.298087649E-2,1.802051067E-2
3.344088557E1,-2.290742937E-3,3.008509055E-2,1.481347065E-2
3.346034734E1,2.596175298E-3,6.047561392E-2,1.237001177E-2
3.347980911E1,2.596175298E-3,9.208786488E-2,7.177661173E-3
3.349927088E1,-6.108647794E-4,1.258381456E-1,-2.748891478E-3
3.351873265E1,4.734201822E-3,1.663079411E-1,-1.053741761E-2
3.353819442E1,5.039634649E-3,2.396117151E-1,-1.160643063E-2
3.355765609E1,1.130099874E-2,3.437641561E-1,-1.878409274E-2
3.357711786E1,2.687804960E-2,4.471530318E-1,-3.558287397E-2
3.359657963E1,4.046979174E-2,5.369501114E-1,-5.604684353E-2
3.361604140E1,4.062250629E-2,6.210967898E-1,-7.651081681E-2
3.363550317E1,3.023780696E-2,7.157807946E-1,-9.010255337E-2
3.365496494E1,2.489273995E-2,8.037453294E-1,-9.605848789E-2
3.367442671E1,3.420842811E-2,8.723149300E-1,-1.010981202E-1
3.369388848E1,5.222893879E-2,9.364557266E-1,-1.088866442E-1
3.371335025E1,4.673115537E-2,9.900590777E-1,-1.098029464E-1
3.373281202E1,1.863137633E-2,1.027474523E0,-1.114828214E-1
3.375227380E1,-1.221729559E-3,1.068555236E0,-1.139262840E-1
3.377173557E1,-3.970621154E-3,1.088561058E0,-1.157588735E-1
3.379119734E1,1.435532235E-2,1.089171886E0,-1.076649204E-1
3.381065911E1,2.764163166E-2,1.075274706E0,-9.819651395E-2
3.383012088E1,2.626718581E-2,1.052672744E0,-9.392046183E-2
3.384958265E1,1.191186346E-2,1.026863694E0,-8.720094711E-2
3.386904442E1,-7.177661173E-3,9.976949096E-1,-7.376192510E-2
3.388850619E1,-2.397644334E-2,9.439387918E-1,-5.268708616E-2
3.390796796E1,-3.527744114E-2,8.845322132E-1,-2.565632015E-2
3.392742973E1,-5.619955808E-2,8.671225309E-1,-4.428769462E-3
3.394689150E1,-8.307760954E-2,8.776599765E-1,9.162971750E-3
3.396635317E1,-1.165224537E-1,8.767436743E-1,-1.527161949E-4
3.398581494E1,-1.372918636E-1,8.265000582E-1,-8.857538924E-3
3.400527671E1,-1.478292793E-1,7.585413456E-1,-1.679878123E-2
3.402473848E1,-1.528689116E-1,6.827940941E-1,-3.359756200E-3
3.404420025E1,-1.624900252E-1,6.372846961E-1,5.039634649E-3
3.406366202E1,-1.780670881E-1,5.888736248E-1,2.138026757E-3
3.408312380E1,-1.913533956E-1,5.546652079E-1,-5.345067009E-3
3.410258557E1,-1.898262352E-1,5.262600183E-1,6.261364091E-3
3.412204734E1,-1.794415265E-1,4.908298552E-1,2.428187430E-2
3.414150911E1,-1.802051067E-1,4.500546157E-1,3.481929377E-2
3.416097088E1,-1.809686869E-1,4.123337269E-1,3.130681813E-2
3.418043265E1,-1.653916389E-1,3.872882724E-1,1.985310577E-2
3.419989442E1,-1.397353113E-1,3.813323379E-1,2.138026804E-2
3.421935619E1,-1.319467872E-1,3.376555145E-1,1.893680729E-2
3.423881796E1,-1.314886510E-1,2.936732471E-1,3.054323839E-3
3.425827973E1,-1.258381456E-1,2.461785078E-1,-1.527161949E-4
3.427774150E1,-1.069013327E-1,1.792888194E-1,1.649334840E-2
3.429720328E1,-7.055488229E-2,1.175914705E-1,2.947422490E-2
3.431666505E1,-2.519817278E-2,8.277218044E-2,3.420842811E-2
3.433612682E1,7.330377586E-3,4.062250629E-2,3.252854943E-2
3.435558848E1,4.428769462E-3,3.054323979E-2,3.054323979E-2
3.437505025E1,-3.222311661E-2,4.978547990E-2,3.069595434E-2
3.439451203E1,-5.146535859E-2,4.764745384E-2,3.817904741E-2
3.441397380E1,-4.886918142E-2,2.443459118E-3,3.497200832E-2
3.443343557E1,-4.245510325E-2,-5.726857483E-2,2.886336111E-2
3.445289734E1,-3.543015569E-2,-1.088866442E-1,2.794706449E-2
3.447235911E1,-9.315688163E-3,-1.484401375E-1,4.016435891E-2
3.449182088E1,1.832594350E-2,-1.594357044E-1,5.375609919E-2
3.451128265E1,2.138026757E-3,-1.298087686E-1,5.085449293E-2
3.453074442E1,-3.466657549E-2,-9.697478265E-2,3.863719851E-2
3.455020619E1,-6.154462695E-2,-7.422006875E-2,3.924806044E-2
3.456966796E1,-7.895427197E-2,-6.627883017E-2,5.787943676E-2
3.458912973E1,-8.659008145E-2,-7.757982612E-2,7.498364896E-2
3.460859150E1,-7.574722916E-2,-9.071341902E-2,8.994983882E-2
3.462805328E1,-3.481929377E-2,-1.142317131E-1,1.108719558E-1
3.464751505E1,4.382954910E-2,-1.363755614E-1,1.383608729E-1
3.466697671E1,1.185077652E-1,-1.391244531E-1,1.446222365E-1
3.468643848E1,1.702785641E-1,-9.850194305E-2,1.379027218E-1
3.470590025E1,1.844811589E-1,-5.375609919E-2,1.169806048E-1
3.472536202E1,1.820377111E-1,-3.222311661E-2,9.850194305E-2
3.474482380E1,1.631008983E-1,-4.398226365E-2,8.857539296E-2
3.476428557E1,1.197294965E-1,-6.429351866E-2,6.734783947E-2
3.478374734E1,9.117157012E-2,-8.185587823E-2,4.382954910E-2
3.480320911E1,8.170316368E-2,-8.704823256E-2,2.611446939E-2
3.482267088E1,8.368847519E-2,-6.505709887E-2,2.306014486E-2
3.484213265E1,8.888082206E-2,-3.848448023E-2,2.183841541E-2
3.486159442E1,8.811724186E-2,-2.443459071E-2,1.435532235E-2
3.488105619E1,8.857539296E-2,-1.572976820E-2,9.926552884E-3
3.490051796E1,1.119409725E-1,3.970621154E-3,1.572976820E-2
3.491997973E1,1.247691289E-1,3.817904973E-3,2.886336111E-2
3.493944150E1,1.178968996E-1,-3.359756246E-2,4.245510325E-2
3.495890328E1,1.134681329E-1,-8.888082206E-2,5.024362728E-2
3.497836505E1,1.160643101E-1,-1.391244531E-1,6.078104675E-2
3.499782671E1,1.195767820E-1,-1.678351015E-1,6.429351866E-2
3.501728848E1,1.313359290E-1,-1.640172005E-1,8.002328873E-2
3.503675025E1,8.078686893E-2,-1.644753367E-1,8.903354406E-2
3.505621202E1,-1.278234571E-1,-5.299251899E-2,-2.718348242E-2
3.507567380E1,-2.712239623E-1,1.191186309E-1,-1.038470119E-1
3.509513557E1,-2.315177470E-1,1.157588735E-1,1.084284950E-2
3.511459734E1,-1.844811589E-1,7.483093534E-3,9.285144508E-2
3.513405911E1,-1.834121495E-1,-3.695731983E-2,6.337722391E-2
3.515352088E1,-1.753181964E-1,5.009091273E-2,3.054323839E-3
3.517298265E1,-1.545487940E-1,9.544762224E-2,-4.123337194E-2
3.519244442E1,-1.588248461E-1,7.437278330E-2,-4.199695215E-2
3.521190619E1,-1.736383140E-1,5.635227636E-2,-2.703076601E-2
3.523136796E1,-1.487455666E-1,5.589412898E-2,-1.847865991E-2
3.525082973E1,-1.061377525E-1,2.580903657E-2,-1.359174121E-2
3.527029150E1,-9.117157012E-2,-2.336557768E-2,-1.817322709E-2
3.528975328E1,-9.239330143E-2,-5.635227636E-2,-2.244928107E-2
3.530921505E1,-9.468404204E-2,-4.917461425E-2,-2.153298259E-2
3.532867682E1,-1.172860414E-1,-1.710421406E-2,-2.565632015E-2
3.534813848E1,-1.379027218E-1,2.687804960E-2,-3.619373962E-2
3.536760025E1,-1.266017258E-1,5.314523727E-2,-4.642572254E-2
3.538706202E1,-8.964440972E-2,7.880155742E-2,-4.444041103E-2
3.540652380E1,-6.261363626E-2,1.021671370E-1,-4.077522457E-2
3.542598557E1,-4.398226365E-2,1.148425788E-1,-4.184423760E-2
3.544544734E1,-7.635809947E-3,9.941824526E-2,-3.451386094E-2
3.546490911E1,2.825249545E-2,6.169734150E-2,-2.183841541E-2
3.548437088E1,3.054323979E-2,2.809977904E-2,-2.718348242E-2
3.550383265E1,1.634063199E-2,1.572976820E-2,-4.764745384E-2
3.552329442E1,4.886918236E-3,2.641990222E-2,-6.169734150E-2
3.554275619E1,-1.038470119E-2,5.085449293E-2,-7.055488229E-2
3.556221796E1,-2.336557768E-2,8.139773458E-2,-7.681624591E-2
3.558167973E1,-3.100138716E-2,9.407317638E-2,-8.964440972E-2
3.560114140E1,-2.000582218E-2,7.910698652E-2,-1.009454057E-1
3.562060317E1,9.010255337E-3,5.864302069E-2,-9.147699922E-2
3.564006494E1,2.351829410E-2,5.115992576E-2,-7.009673119E-2
3.565952671E1,2.611446939E-2,4.031707719E-2,-5.864302069E-2
3.567898848E1,3.222311661E-2,5.054906011E-2,-4.902189970E-2
3.569845025E1,3.115410358E-2,5.864302069E-2,-3.940077871E-2
3.571791203E1,3.680460155E-2,6.078104675E-2,-2.443459071E-2
3.573737380E1,4.001164436E-2,6.566796452E-2,-1.252272818E-2
3.575683557E1,3.054323979E-2,6.597339362E-2,-7.635809947E-3
3.577629734E1,2.794706449E-2,5.742128938E-2,-3.512472380E-3
3.579575911E1,2.718348242E-2,4.932733253E-2,-2.443459118E-3
3.581522088E1,2.199113183E-2,4.734202102E-2,-1.389717404E-2
3.583468265E1,2.596175298E-2,4.291325063E-2,-2.061668597E-2
3.585414442E1,3.894263133E-2,3.466657549E-2,-1.038470119E-2
3.587360609E1,5.299251899E-2,2.382372692E-2,6.414080039E-3
3.589306796E1,5.115992576E-2,7.635809598E-4,9.926552884E-3
3.591252963E1,4.505127668E-2,-1.740964688E-2,6.414080039E-3
3.593199140E1,4.153880477E-2,-2.397644334E-2,7.330377586E-3
3.595145317E1,3.268126398E-2,-2.260199748E-2,3.970621154E-3
3.597091494E1,2.809977904E-2,-1.710421406E-2,-1.069013379E-3
3.599037671E1,2.733619884E-2,-2.138026757E-3,-3.207040019E-3
3.600983848E1,2.382372692E-2,3.665188793E-3,6.108647794E-4
3.602930025E1,2.489273995E-2,-6.872228812E-3,7.024944760E-3
3.604876202E1,3.252854943E-2,-1.756236330E-2,1.328630932E-2
3.606822380E1,3.558287397E-2,-3.787361458E-2,1.893680729E-2
3.608768557E1,3.711003438E-2,-5.222893879E-2,1.618791744E-2
3.610714734E1,4.871646687E-2,-5.803215504E-2,8.857538924E-3
3.612660911E1,5.207622424E-2,-4.963276163E-2,4.886918236E-3
3.614607078E1,5.009091273E-2,-5.772672221E-2,3.817904973E-3
3.616553255E1,6.459894776E-2,-5.039634556E-2,1.511890348E-2
3.618499432E1,6.841685623E-2,-5.238165334E-2,2.153298259E-2
3.620445609E1,6.459894776E-2,-4.978547990E-2,1.542433538E-2
3.622391786E1,7.147117704E-2,-4.581485689E-2,7.177661173E-3
3.624337963E1,8.093958348E-2,-3.970621154E-2,1.221729536E-2
3.626284140E1,7.559451461E-2,-3.863719851E-2,2.168569900E-2
3.628230317E1,5.665770918E-2,-4.367683083E-2,2.031125315E-2
3.630176494E1,4.016435891E-2,-4.978547990E-2,1.038470119E-2
3.632122671E1,3.558287397E-2,-4.978547990E-2,3.207040019E-3
3.634068848E1,3.695731983E-2,-4.489856213E-2,4.123337101E-3
3.636015025E1,3.756818548E-2,-4.046979174E-2,8.552107029E-3
3.637961202E1,3.741546720E-2,-4.627300799E-2,7.483093534E-3
3.639907380E1,3.543015569E-2,-4.948004708E-2,-1.069013379E-3
3.641853546E1,3.573558852E-2,-5.009091273E-2,-7.024944760E-3
3.643799723E1,3.100138716E-2,-4.459312931E-2,-1.160643063E-2
3.645745900E1,2.306014486E-2,-3.985892609E-2,-1.145371422E-2
3.647692078E1,1.237001177E-2,-4.520399496E-2,-1.023198478E-2
3.649638255E1,-4.581485991E-4,-5.054906011E-2,-9.315688163E-3
3.651584432E1,-1.084284950E-2,-5.009091273E-2,-1.282816008E-2
3.653530609E1,-1.420260593E-2,-3.665188700E-2,-1.481347065E-2
3.655476786E1,-2.214384824E-2,-3.145953640E-2,-1.756236330E-2
3.657422963E1,-2.703076601E-2,-4.306596518E-2,-2.107483521E-2
3.659369140E1,-2.382372692E-2,-5.360338464E-2,-2.428187430E-2
3.661315317E1,-2.351829410E-2,-5.467239767E-2,-2.229656465E-2
3.663261494E1,-2.474002354E-2,-6.108647957E-2,-1.786779426E-2
3.665207671E1,-2.977965772E-2,-4.841103405E-2,-1.863137633E-2
3.667153838E1,-4.153880477E-2,-3.802633286E-2,-2.260199748E-2
3.669100015E1,-4.627300799E-2,-2.993237413E-2,-2.519817278E-2
3.671046192E1,-3.558287397E-2,-3.375028074E-2,-1.970038936E-2
3.672992369E1,-3.527744114E-2,-3.512472659E-2,-1.618791744E-2
3.674938546E1,-4.703658819E-2,-3.329212964E-2,-1.634063199E-2
3.676884723E1,-6.017018110E-2,-2.458730713E-2,-2.351829410E-2
3.678830900E1,-6.505709887E-2,-2.932151034E-2,-2.916879393E-2
3.680777078E1,-6.261363626E-2,-3.940077871E-2,-2.672533318E-2
3.682723255E1,-5.772672221E-2,-4.780016840E-2,-1.817322709E-2
3.684669432E1,-5.329795182E-2,-5.268708616E-2,-1.038470119E-2
3.686615609E1,-5.619955808E-2,-5.207622424E-2,-1.053741761E-2
3.688561786E1,-5.451968312E-2,-4.963276163E-2,-1.130099874E-2
3.690507953E1,-5.070177838E-2,-4.993819445E-2,-7.177661173E-3
3.692454130E1,-4.963276163E-2,-5.360338464E-2,-1.832594397E-3
3.694400307E1,-5.161807314E-2,-5.940660089E-2,-3.054323897E-4
3.696346484E1,-5.146535859E-2,-6.398808211E-2,2.596175298E-3
3.698292661E1,-4.581485689E-2,-6.246092543E-2,7.941242307E-3
3.700238838E1,-4.108065739E-2,-6.154462695E-2,8.399390616E-3
3.702185015E1,-4.123337194E-2,-5.757400393E-2,5.497782957E-3
3.704131192E1,-4.108065739E-2,-4.932733253E-2,5.039634649E-3
3.706077369E1,-3.054323979E-2,-5.314523727E-2,9.926552884E-3
3.708023546E1,-1.908952370E-2,-6.169734150E-2,8.704823442E-3
3.709969723E1,-1.282816008E-2,-5.818486959E-2,8.552107029E-3
3.711915890E1,-6.414080039E-3,-6.994401664E-2,9.773836471E-3
3.713862067E1,-4.581485875E-3,-6.368265301E-2,6.108647678E-3
3.715808244E1,-1.069013402E-2,-5.894844979E-2,9.162971983E-4
3.717754421E1,-8.704823442E-3,-4.886918142E-2,-3.054323897E-4
3.719700598E1,3.665188793E-3,-4.321868345E-2,3.970621154E-3
3.721646775E1,9.621120058E-3,-4.092793912E-2,1.679878100E-3
3.723592952E1,1.359174121E-2,-4.596757516E-2,-9.162971983E-4
3.725539130E1,1.404988952E-2,-4.367683083E-2,-1.527161920E-3
3.727485307E1,1.557705179E-2,-3.665188700E-2,-1.679878100E-3
3.729431484E1,1.603520103E-2,-3.375028074E-2,-5.650499370E-3
3.731377661E1,2.168569900E-2,-3.527744114E-2,-5.192350596E-3
3.733323828E1,2.733619884E-2,-3.344484791E-2,-3.054323839E-3
3.735270005E1,2.672533318E-2,-3.039052337E-2,-5.650499370E-3
3.737216182E1,2.275471389E-2,-2.626718581E-2,-8.857538924E-3
3.739162359E1,2.107483521E-2,-2.550360374E-2,-1.114828233E-2
3.741108536E1,2.367101051E-2,-2.306014486E-2,-1.252272818E-2
3.743054713E1,2.397644334E-2,-2.031125315E-2,-1.221729536E-2
3.745000890E1,1.970038936E-2,-1.786779426E-2,-1.252272818E-2
3.746947067E1,1.771507785E-2,-9.010255337E-3,-1.099556591E-2
3.748893244E1,1.893680729E-2,4.581485991E-4,-9.773836471E-3
3.750839421E1,1.603520103E-2,1.114828233E-2,-1.175914705E-2
3.752785598E1,7.177661173E-3,6.261364091E-3,-1.466075517E-2
3.754731765E1,7.788525894E-3,2.901607659E-3,-1.588248461E-2
3.756677942E1,9.315688163E-3,3.970621154E-3,-1.450803876E-2
3.758624119E1,5.039634649E-3,1.374445762E-2,-8.857538924E-3
3.760570296E1,4.581485875E-3,8.093958721E-3,-8.552107029E-3
3.762516473E1,7.177661173E-3,1.420260593E-2,-1.237001177E-2
3.764462650E1,5.497782957E-3,1.527161989E-2,-1.237001177E-2
3.766408828E1,8.552107029E-3,2.351829410E-2,-7.635809947E-3
3.768355005E1,8.552107029E-3,3.161225095E-2,-6.872228812E-3
3.770301182E1,2.443459118E-3,3.695731983E-2,-7.483093534E-3
3.772247348E1,6.108647794E-4,3.756818548E-2,-1.374445739E-3
3.774193525E1,4.428769462E-3,3.573558852E-2,7.024944760E-3
3.776139702E1,9.926552884E-3,3.863719851E-2,1.069013402E-2
3.778085880E1,9.621120058E-3,3.985892609E-2,6.414080039E-3
3.780032057E1,1.053741761E-2,3.787361458E-2,3.054323839E-3
3.781978234E1,1.252272818E-2,3.573558852E-2,3.817904973E-3
3.783924411E1,1.282816008E-2,4.046979174E-2,3.665188793E-3
3.785870588E1,1.267544460E-2,4.489856213E-2,2.290742937E-3
3.787816765E1,1.313359290E-2,4.795288667E-2,2.138026757E-3
3.789762932E1,2.031125315E-2,4.871646687E-2,4.123337101E-3
3.791709109E1,2.229656465E-2,4.184423760E-2,4.276053514E-3
3.793655286E1,2.092211880E-2,3.359756246E-2,3.512472380E-3
3.795601463E1,2.183841541E-2,2.993237413E-2,5.803215317E-3
3.797547640E1,2.122755162E-2,2.977965772E-2,1.038470119E-2
3.799493817E1,1.603520103E-2,3.375028074E-2,1.435532235E-2
3.801439994E1,1.130099874E-2,2.916879393E-2,1.191186346E-2
3.803386171E1,1.771507785E-2,3.359756246E-2,9.315688163E-3
3.805332348E1,2.458730713E-2,3.313941509E-2,9.468403645E-3
3.807278525E1,2.138026804E-2,3.130681813E-2,9.315688163E-3
3.809224692E1,1.359174121E-2,2.183841541E-2,2.443459118E-3
3.811170869E1,1.191186346E-2,2.672533318E-2,-1.679878100E-3
3.813117046E1,7.483093534E-3,3.558287397E-2,2.748891478E-3
3.815063223E1,1.069013379E-3,3.268126398E-2,4.581485875E-3
3.817009400E1,-1.527161920E-3,2.626718581E-2,3.970621154E-3
3.818955578E1,1.221729559E-3,2.229656465E-2,6.108647794E-4
3.820901755E1,1.374445739E-3,2.351829410E-2,-1.527161920E-3
3.822847932E1,1.832594397E-3,2.779434808E-2,-1.069013379E-3
3.824794098E1,-6.108647794E-4,3.222311661E-2,-2.138026757E-3
3.826740275E1,7.635809598E-4,4.077522457E-2,-1.527161949E-4
3.828686453E1,7.483093534E-3,4.276053607E-2,4.428769462E-3
3.830632630E1,9.773836471E-3,3.481929377E-2,7.788525894E-3
3.832578807E1,5.497782957E-3,1.649334840E-2,5.039634649E-3
3.834524984E1,-5.650499370E-3,6.261364091E-3,-3.054323897E-4
3.836471161E1,-1.863137633E-2,7.788525894E-3,-2.748891478E-3
3.838417338E1,-2.657261863E-2,1.282816008E-2,-3.512472380E-3
3.840363515E1,-3.191768378E-2,1.298087649E-2,-4.276053514E-3
3.842309692E1,-3.787361458E-2,1.237001177E-2,-9.468403645E-3
3.844255859E1,-3.756818548E-2,1.206457894E-2,-1.878409274E-2
3.846202036E1,-2.916879393E-2,9.468403645E-3,-2.214384824E-2
3.848148213E1,-1.893680729E-2,8.857538924E-3,-1.832594350E-2
3.850094390E1,-1.237001177E-2,2.748891478E-3,-1.557705179E-2
3.852040567E1,-3.512472380E-3,3.970621154E-3,-1.863137633E-2
3.853986744E1,3.665188793E-3,3.512472380E-3,-2.733619884E-2
3.855932921E1,-1.832594397E-3,5.192350596E-3,-3.268126398E-2
3.857879098E1,-2.443459118E-3,-7.635809947E-3,-3.543015569E-2
3.859825275E1,-6.872228812E-3,-1.634063199E-2,-3.741546720E-2
3.861771442E1,-2.306014486E-2,-3.145953640E-2,-3.833176568E-2
3.863717619E1,-3.207040206E-2,-4.169152305E-2,-4.138609022E-2
3.865663796E1,-2.519817278E-2,-4.169152305E-2,-4.123337194E-2
3.867609973E1,-3.054323979E-2,-2.718348242E-2,-4.764745384E-2
3.869556150E1,-4.886918142E-2,-1.313359290E-2,-5.665770918E-2
