"Time (s)","Acceleration x (m/s^2)","Acceleration y (m/s^2)","Acceleration z (m/s^2)"
1.698642700E-2,9.828518867E0,3.242274821E-1,1.944168359E-1
3.644882300E-2,1.013300610E1,2.506481707E-1,2.261217386E-1
5.591121900E-2,1.030229759E1,3.158525825E-1,2.656033039E-1
7.537361500E-2,1.035613632E1,4.127618968E-1,3.206382394E-1
9.483601100E-2,1.029870892E1,4.151547253E-1,4.348955154E-1
1.142984070E-1,1.011864853E1,4.043870270E-1,6.071787477E-1
1.337608020E-1,9.894321442E0,4.259224236E-1,6.771687865E-1
1.532231980E-1,9.649057388E0,4.648058116E-1,6.592226624E-1
1.726855940E-1,9.393025398E0,5.066801906E-1,6.897311211E-1
1.921479900E-1,9.328418732E0,5.401797295E-1,6.825526357E-1
2.116103860E-1,9.396016121E0,6.059823632E-1,6.430711150E-1
2.310727820E-1,9.413962364E0,7.531409264E-1,5.300102234E-1
2.505351770E-1,9.445069313E0,9.026923180E-1,4.013960063E-1
2.699976770E-1,9.497711182E0,8.781659007E-1,3.708875179E-1
2.894600730E-1,9.489934921E0,7.112665176E-1,3.732803464E-1
3.089224690E-1,9.524630547E0,3.786641955E-1,3.972085714E-1
3.283848650E-1,9.724431038E0,2.087737769E-1,5.168496966E-1
3.478472610E-1,9.882357597E0,1.722832322E-1,5.886343718E-1
3.673096570E-1,9.850652695E0,1.567298770E-1,7.118647099E-1
3.867720520E-1,9.927223206E0,1.399801224E-1,6.951149702E-1
4.062344480E-1,1.004447079E1,2.446661144E-1,5.108676553E-1
4.256968440E-1,1.005643559E1,4.749752879E-1,2.638086975E-1
4.451592400E-1,1.004088211E1,8.171489239E-1,1.531406492E-1
4.646216360E-1,9.951749802E0,1.169492126E0,3.427718580E-1
4.840840320E-1,9.781859398E0,1.328016520E0,5.778666735E-1
5.035464270E-1,9.614959717E0,1.200000525E0,7.238288522E-1
5.230088230E-1,9.619745255E0,9.367900491E-1,7.788637877E-1
5.424712190E-1,9.848857880E0,7.998009920E-1,6.825526357E-1
5.619336150E-1,1.014257717E1,8.093722463E-1,3.738785386E-1
5.813960110E-1,1.026102161E1,7.232306600E-1,1.441675574E-1
6.008584070E-1,1.011386299E1,5.964110494E-1,3.212364316E-1
6.203208020E-1,9.963713646E0,5.443671346E-1,8.386843204E-1
6.397831980E-1,9.999606133E0,4.857429862E-1,1.169492126E0
6.592455940E-1,9.999606133E0,4.181457460E-1,1.009771109E0
6.787079900E-1,9.952347755E0,3.846462369E-1,4.881358147E-1
6.981703860E-1,9.900303841E0,3.517449200E-1,1.136590764E-1
7.176327820E-1,9.823733330E0,5.569294691E-1,1.537388563E-1
7.370951770E-1,9.705886841E0,9.200403094E-1,4.695914388E-1
7.565575730E-1,9.556335449E0,1.100100160E0,7.034898400E-1
7.760199690E-1,9.306883812E0,1.019940615E0,6.340979934E-1
7.954823650E-1,9.215357780E0,9.062815905E-1,4.953143001E-1
8.149447610E-1,9.493523598E0,9.026923180E-1,3.864408433E-1
8.344071570E-1,9.881759644E0,8.398807645E-1,5.545366406E-1
8.538695520E-1,1.005284595E1,7.537391186E-1,7.304090858E-1
8.733319480E-1,1.031725311E1,7.142575383E-1,5.940182209E-1
8.927943440E-1,1.066002464E1,6.406782866E-1,5.066801906E-1
9.122567400E-1,1.073958588E1,4.989035130E-1,4.971089065E-1
9.317191360E-1,1.032562828E1,1.489532143E-1,4.995017350E-1
9.511815320E-1,9.741779327E0,-3.475574851E-1,5.006981492E-1
9.706439270E-1,9.337990761E0,-7.148557901E-1,6.011967063E-1
9.901064270E-1,9.225527763E0,-6.412764788E-1,8.303094506E-1
1.009568719E0,9.386445045E0,-1.286142170E-1,9.595218897E-1
1.029031219E0,9.605388641E0,3.433700502E-1,8.243274093E-1
1.048493615E0,9.801001549E0,5.102694035E-1,6.179464459E-1
1.067956011E0,9.878170013E0,4.941178858E-1,4.809573591E-1
1.087418407E0,9.818947792E0,3.768695593E-1,3.816552162E-1
1.106880802E0,9.752547264E0,2.494517565E-1,2.943171859E-1
1.126343198E0,9.705288887E0,1.381855011E-1,2.715853751E-1
1.145805594E0,9.768099785E0,5.742774159E-2,2.757728100E-1
1.165267990E0,9.918848038E0,-1.674975827E-2,4.001995921E-1
1.184730386E0,1.010907745E1,-1.160518974E-1,6.023930907E-1
1.204192782E0,1.016829967E1,-3.122633696E-1,7.369893789E-1
1.223655177E0,1.006361389E1,-5.443671346E-1,8.315058947E-1
1.243117573E0,9.818349838E0,-6.711867452E-1,9.224331379E-1
1.262579969E0,9.568299294E0,-6.370890141E-1,9.655039310E-1
1.282042365E0,9.481559753E0,-5.270192027E-1,9.326026440E-1
1.301504761E0,9.543772697E0,-3.792623878E-1,8.787640929E-1
1.320967157E0,9.656235695E0,-2.333002090E-1,9.296116233E-1
1.340429552E0,9.803992271E0,-1.710868180E-1,9.439685345E-1
1.359891948E0,9.934401512E0,-2.506481707E-1,8.051848412E-1
1.379354344E0,9.906884193E0,-2.769692242E-1,7.639086246E-1
1.398816740E0,9.826126099E0,-2.446661144E-1,8.590233326E-1
1.418279136E0,9.771689415E0,-2.105683982E-1,1.074377418E0
1.437741532E0,9.788438797E0,-2.093719840E-1,1.058824062E0
1.457203927E0,9.732208252E0,-2.368894368E-1,8.626125455E-1
1.476666323E0,9.747162819E0,-2.189432681E-1,6.460621357E-1
1.496128719E0,9.848259926E0,-1.441675574E-1,5.407779217E-1
1.515591115E0,9.922437668E0,-3.888336942E-2,6.412764788E-1
1.535053511E0,9.980463028E0,-1.016949583E-2,7.836494446E-1
1.554515907E0,9.942776680E0,-6.819544733E-2,7.764709592E-1
1.573978302E0,9.854242325E0,-1.645065546E-1,6.418746710E-1
1.593440698E0,9.789037704E0,-2.285145670E-1,4.863412082E-1
1.612903198E0,9.745368004E0,-2.129612118E-1,4.516452849E-1
1.632365594E0,9.798010826E0,-1.310070455E-1,5.599204898E-1
1.651827990E0,9.869794846E0,-5.024927482E-2,6.352944374E-1
1.671290386E0,9.915857315E0,1.196411345E-2,5.874379873E-1
1.690752782E0,9.876974106E0,8.793623000E-2,4.007977843E-1
1.710215177E0,9.835099220E0,8.853443712E-2,1.423729509E-1
1.729677573E0,9.842875481E0,1.746760458E-1,1.495514158E-2
1.749139969E0,9.918848038E0,2.787638307E-1,3.888336942E-2
1.768602365E0,9.951749802E0,2.991028428E-1,1.603191197E-1
1.788064761E0,9.869794846E0,2.458625287E-1,1.980060786E-1
1.807527157E0,9.761520386E0,1.525424421E-1,2.159522474E-1
1.826989552E0,9.738788605E0,1.794617064E-2,1.040877849E-1
1.846451948E0,9.809376717E0,-5.204389244E-2,-1.375873014E-2
1.865914344E0,9.835099220E0,-1.674975827E-2,-7.477571070E-2
1.885376740E0,9.921240807E0,5.443671346E-2,2.093719877E-2
1.904839136E0,1.004267693E1,6.759724021E-2,1.680957973E-1
1.924301532E0,1.010249710E1,4.007977992E-2,2.380858511E-1
1.943763927E0,1.006600666E1,-3.768695518E-2,1.926222295E-1
1.963226323E0,1.001097202E1,-1.609173268E-1,7.477571070E-2
1.982688719E0,9.992427826E0,-2.075773627E-1,2.153540403E-2
2.002151115E0,9.900303841E0,-1.226321608E-1,2.931207791E-2
2.021613511E0,9.863813400E0,-2.991028363E-3,7.298108935E-2
2.041075907E0,9.915258408E0,8.075776696E-2,1.501496136E-1
2.060538302E0,9.872187614E0,1.333998591E-1,2.985046208E-1
2.080000698E0,9.845867157E0,1.004985496E-1,3.649054468E-1
2.099463094E0,9.828518867E0,-5.982056609E-4,1.998006850E-1
2.118925490E0,9.829715729E0,-7.298108935E-2,6.580262631E-2
2.138387886E0,9.958329201E0,-1.734796353E-2,9.511470050E-2
2.157850282E0,1.018983555E1,7.178468257E-2,1.692921966E-1
2.177312677E0,1.035314560E1,1.489532143E-1,1.429711580E-1
2.196775073E0,9.995418549E0,9.870393574E-2,6.999006122E-2
2.216237573E0,9.564111710E0,-4.785645381E-2,3.110669367E-2
2.235699969E0,9.573084831E0,-2.141576260E-1,1.262213886E-1
2.255162365E0,9.775876999E0,-2.817548811E-1,6.065805554E-1
2.274624761E0,9.802796364E0,-1.333998591E-1,1.055832982E0
2.294087157E0,9.867402077E0,5.144568533E-2,9.942178130E-1
2.313549552E0,9.891928673E0,2.632105052E-1,4.642075896E-1
2.333011948E0,9.827322960E0,4.546363056E-1,-1.579262912E-1
2.352474344E0,9.774082184E0,5.808576941E-1,-4.749752879E-1
2.371936740E0,9.870393753E0,6.005984545E-1,-2.464607358E-1
2.391399136E0,9.969695091E0,4.785645306E-1,2.009970993E-1
2.410861532E0,9.978668213E0,2.608176768E-1,4.175475538E-1
2.430323927E0,9.926026344E0,-1.238285750E-1,4.905286431E-1
2.449786323E0,9.693324089E0,-4.175475538E-1,2.925225794E-1
2.469248719E0,9.553942680E0,-3.535395563E-1,9.571290575E-3
2.488711115E0,9.722636223E0,-1.585244983E-1,1.447657645E-1
2.508173511E0,9.909276962E0,8.554340899E-2,4.977070987E-1
2.527635907E0,9.978070259E0,2.356930375E-1,5.760720372E-1
2.547098302E0,1.005284595E1,2.189432681E-1,3.672982752E-1
2.566560698E0,1.000618649E1,1.304088384E-1,2.985046208E-1
2.586023094E0,9.907482147E0,8.853443712E-2,3.230310678E-1
2.605485490E0,9.796813965E0,1.166501045E-1,3.684946895E-1
2.624947886E0,9.720842361E0,1.794617027E-1,3.756731451E-1
2.644410282E0,9.675378799E0,1.680957973E-1,3.696911037E-1
2.663872677E0,9.764511108E0,8.614161611E-2,3.690928817E-1
2.683335073E0,9.840482712E0,1.495514158E-2,3.212364316E-1
2.702797469E0,9.957731247E0,7.776673883E-2,1.968096644E-1
2.722259865E0,1.016829967E1,1.848455518E-1,9.451649338E-2
2.741722261E0,1.017129040E1,2.159522474E-1,9.511470050E-2
2.761184657E0,9.956535339E0,1.627119333E-1,1.770688742E-1
2.780647157E0,9.815957069E0,1.495514158E-2,3.038884699E-1
2.800109552E0,9.749555588E0,-6.699903309E-2,4.301098585E-1
2.819571948E0,9.731011391E0,-5.862415582E-2,4.528416991E-1
2.839034344E0,9.756733894E0,3.409772366E-2,5.204389095E-1
2.858496740E0,9.809376717E0,1.190429255E-1,5.497509837E-1
2.877959136E0,9.844670296E0,1.399801224E-1,4.851447940E-1
2.897421532E0,9.843474388E0,5.204389244E-2,3.822534084E-1
2.916883927E0,9.889535904E0,-8.973085321E-3,3.320041299E-1
2.936346323E0,9.895518303E0,-2.333002165E-2,3.332005441E-1
2.955808719E0,9.860223770E0,1.794616925E-3,3.367897868E-1
2.975271115E0,9.869196892E0,4.905286431E-2,3.439682424E-1
2.994733511E0,9.839286804E0,1.040877849E-1,3.661018610E-1
3.014195907E0,9.839884758E0,9.990034252E-2,3.421736360E-1
3.033658302E0,9.854840279E0,1.028913707E-1,3.385843933E-1
3.053120698E0,9.892526627E0,1.076770201E-1,3.266202807E-1
3.072583094E0,9.929018021E0,8.195417374E-2,3.080759048E-1
3.092045490E0,9.914660454E0,4.905286431E-2,2.871387303E-1
3.111507886E0,9.885348320E0,4.007977992E-2,2.003988922E-1
3.130970282E0,9.860223770E0,5.204389244E-2,1.657029688E-1
3.150432677E0,9.894919395E0,8.135596663E-2,2.368894368E-1
3.169895073E0,9.948758125E0,1.310070455E-1,3.068794906E-1
3.189357469E0,9.949954987E0,9.690931439E-2,2.913261652E-1
3.208819865E0,9.879964828E0,3.469592705E-2,2.662015259E-1
3.228282261E0,9.837491989E0,-8.374879137E-3,2.482553422E-1
3.247744657E0,9.933204651E0,-2.512463741E-2,2.572284341E-1
3.267207052E0,9.973882675E0,2.153540403E-2,2.679961324E-1
3.286669448E0,9.946365356E0,3.768695518E-2,2.231307179E-1
3.306131844E0,9.918848038E0,-1.674975827E-2,2.219343036E-1
3.325594240E0,9.832108498E0,-7.537391037E-2,2.590230405E-1
3.345056636E0,9.714859962E0,-1.220339537E-1,3.194418252E-1
3.364519032E0,9.658628464E0,-1.100698411E-1,3.918247223E-1
3.383981427E0,9.746564865E0,-7.178468257E-2,4.325026870E-1
3.403443927E0,9.849455833E0,-4.366901144E-2,3.762713671E-1
3.422906323E0,9.935597420E0,-6.879365444E-2,2.847459018E-1
3.442368719E0,9.958928108E0,-8.614161611E-2,2.321037948E-1
3.461831115E0,9.905089378E0,-8.793623000E-2,2.416750938E-1
3.481293511E0,9.803394318E0,-7.537391037E-2,3.098705411E-1
3.500755907E0,9.746564865E0,-1.734796353E-2,3.978067636E-1
3.520218302E0,9.714859962E0,-7.178467698E-3,4.307080805E-1
3.539680698E0,9.721440315E0,-2.751746029E-2,3.882354796E-1
3.559143094E0,9.792028427E0,-1.160518974E-1,2.973082066E-1
3.578605490E0,9.936196327E0,-1.854437590E-1,1.878365725E-1
3.598067886E0,1.002473068E1,-1.351944804E-1,1.435693651E-1
3.617530282E0,1.000020409E1,2.991028363E-3,1.698904037E-1
3.636992677E0,9.920642853E0,1.387837082E-1,2.733799815E-1
3.656455073E0,9.838688850E0,1.573280841E-1,3.391826153E-1
3.675917469E0,9.753743172E0,3.589234129E-2,3.661018610E-1
3.695379865E0,9.775279045E0,-6.999006122E-2,3.038884699E-1
3.714842261E0,9.892526627E0,-1.740778536E-1,1.908276081E-1
3.734304657E0,9.899705887E0,-2.129612118E-1,8.075776696E-2
3.753767052E0,9.924231529E0,-7.417750359E-2,7.238288224E-2
3.773229448E0,9.921240807E0,1.070788130E-1,2.237289101E-1
3.792691844E0,9.862616539E0,1.740778536E-1,4.085744619E-1
3.812154240E0,9.794421196E0,1.004985496E-1,4.336991012E-1
3.831616636E0,9.786644936E0,-4.307080805E-2,3.571287692E-1
3.851079032E0,9.851848602E0,-1.710868180E-1,2.877369225E-1
3.870541427E0,9.918848038E0,-1.890329868E-1,2.709871531E-1
3.890003823E0,9.989436150E0,-8.913264424E-2,2.243271172E-1
3.909466219E0,1.002712345E1,7.178468257E-2,1.734796464E-1
3.928928615E0,9.967901230E0,1.998006850E-1,1.573280841E-1
3.948391011E0,9.881759644E0,2.309073806E-1,1.609173268E-1
3.967853511E0,9.838688850E0,1.579262912E-1,1.651047617E-1
3.987315907E0,9.886545181E0,8.853443712E-2,1.070788130E-1
4.006778302E0,9.972686768E0,5.443671346E-2,5.623133108E-2
4.026240698E0,1.000917721E1,9.092725813E-2,5.024927482E-2
4.045703094E0,9.954142570E0,1.489532143E-1,4.127619043E-2
4.065165490E0,9.834501266E0,1.567298770E-1,7.417750359E-2
4.084627886E0,9.755537987E0,1.471585929E-1,1.142572835E-1
4.104090282E0,9.781260490E0,1.459621787E-1,1.184447184E-1
4.123552677E0,9.860821724E0,1.764706671E-1,1.184447184E-1
4.143015073E0,9.875179291E0,1.866401732E-1,1.423729509E-1
4.162477469E0,9.817152977E0,2.189432681E-1,1.441675574E-1
4.181939865E0,9.834501266E0,2.297109663E-1,3.230310604E-2
4.201402261E0,9.843474388E0,2.931207716E-1,-4.965107143E-2
4.220864657E0,9.847661972E0,3.613162339E-1,-4.965107143E-2
4.240327052E0,9.855438232E0,3.828516304E-1,3.349951655E-2
4.259789448E0,9.841679573E0,3.619144261E-1,1.016949583E-2
4.279251844E0,9.756135941E0,4.091726840E-1,-7.776673883E-2
4.298714240E0,9.625727654E0,5.132604837E-1,-1.411765367E-1
4.318176636E0,9.637691498E0,6.693921089E-1,-2.338984162E-1
4.337639032E0,9.774680138E0,7.465606928E-1,-2.458625287E-1
4.357101427E0,9.894321442E0,7.836494446E-1,-2.039881349E-1
4.376563279E0,9.989436150E0,7.896314859E-1,-1.244267747E-1
4.396025675E0,9.985248566E0,7.591229677E-1,-9.571290761E-2
4.415488071E0,9.923035622E0,7.866404653E-1,-9.750752151E-2
4.434950467E0,9.845269203E0,9.020941257E-1,1.196411345E-2
4.454412863E0,9.784850121E0,1.024726272E0,1.471585929E-1
4.473875258E0,9.765707016E0,1.075573802E0,2.147558331E-1
4.493337654E0,9.812965393E0,1.000199914E0,2.207378894E-1
4.512800050E0,9.926026344E0,9.002995491E-1,2.727817893E-1
4.532262550E0,1.008933640E1,8.141579032E-1,3.421736360E-1
4.551724946E0,1.023828983E1,6.927221417E-1,3.427718580E-1
4.571187342E0,1.020299530E1,5.270192027E-1,3.140579760E-1
4.590649738E0,1.000020409E1,5.557330847E-1,2.033899277E-1
4.610112133E0,9.755537987E0,7.507480979E-1,9.212367237E-2
4.629574529E0,9.421739578E0,9.200403094E-1,6.939185411E-2
4.649036925E0,9.343972206E0,1.124626637E0,2.333002165E-2
4.668499321E0,9.552745819E0,1.280758262E0,8.315058798E-2
4.687961717E0,9.746564865E0,1.277767301E0,9.571290761E-2
4.707424113E0,9.969695091E0,1.176670551E0,1.890329868E-1
4.726886508E0,1.005703354E1,1.079162955E0,2.554338276E-1
4.746348904E0,9.936196327E0,1.068993568E0,2.841476798E-1
4.765811300E0,9.768099785E0,1.057627559E0,3.906283081E-1
4.785273696E0,9.657432556E0,1.024128079E0,5.150550604E-1
4.804736092E0,9.641280174E0,8.578268886E-1,5.036891699E-1
4.824198488E0,9.817750931E0,6.388836503E-1,3.439682424E-1
4.843660883E0,1.014496994E1,5.724828243E-1,1.172483116E-1
4.863123279E0,1.033101177E1,6.370890141E-1,-1.148554832E-1
4.882585675E0,1.026102161E1,7.172485590E-1,-1.758724600E-1
4.902048071E0,1.004626560E1,7.716853023E-1,-4.725824669E-2
4.921510467E0,9.792626381E0,8.237292171E-1,1.549352705E-1
4.940972863E0,9.584450722E0,8.129615188E-1,2.943171859E-1
4.960435258E0,9.513264656E0,6.879364848E-1,3.607180119E-1
4.979897654E0,9.613164902E0,5.198407173E-1,2.638086975E-1
4.999360050E0,9.811170578E0,3.948157430E-1,9.810572863E-2
5.018822446E0,1.001336479E1,4.265206456E-1,-5.383851007E-3
5.038284842E0,1.009472084E1,5.706881881E-1,1.316052489E-2
5.057747342E0,1.002054310E1,7.142575383E-1,5.982056633E-2
5.077209738E0,9.912267685E0,7.585247755E-1,9.810572863E-2
5.096672133E0,9.790233612E0,6.586244106E-1,1.788634956E-1
5.116134529E0,9.719047546E0,5.347958803E-1,2.644068897E-1
5.135596925E0,9.702896118E0,4.540380836E-1,2.667997181E-1
5.155059321E0,9.692128181E0,4.211367965E-1,2.566302419E-1
5.174521717E0,9.717850685E0,4.109672904E-1,2.733799815E-1
5.193984113E0,9.809974670E0,4.025924206E-1,2.979064286E-1
5.213446508E0,9.877572060E0,3.876372576E-1,2.805584669E-1
5.232908904E0,9.857233047E0,3.583251834E-1,2.841476798E-1
5.252371300E0,9.831509590E0,3.361915946E-1,3.230310678E-1
5.271833696E0,9.804591179E0,3.026920557E-1,3.774677813E-1
5.291296092E0,9.779465675E0,2.715853751E-1,4.097708762E-1
5.310758488E0,9.790832520E0,2.333002090E-1,3.936193287E-1
5.330220883E0,9.786046028E0,2.141576260E-1,3.696911037E-1
5.349683279E0,9.787840843E0,1.854437590E-1,3.266202807E-1
5.369145675E0,9.816555023E0,1.686939895E-1,3.086741269E-1
5.388608071E0,9.887741089E0,2.057827413E-1,3.146561682E-1
5.408070467E0,9.906884193E0,2.374876440E-1,2.907279432E-1
5.427532863E0,9.882357597E0,2.464607358E-1,2.811566591E-1
5.446995258E0,9.868000984E0,2.123630047E-1,2.344966233E-1
5.466457654E0,9.835697174E0,1.746760458E-1,1.992024779E-1
5.485920050E0,9.824331284E0,1.417747438E-1,2.099701911E-1
5.505382550E0,9.842875481E0,1.459621787E-1,2.775674164E-1
5.524844842E0,9.862616539E0,1.453639716E-1,2.865405083E-1
5.544307342E0,9.863813400E0,8.494520187E-2,2.428714931E-1
5.563769738E0,9.912865639E0,5.144568533E-2,2.147558331E-1
5.583232133E0,9.877572060E0,-1.555334684E-2,2.494517565E-1
5.602694529E0,9.808179855E0,-7.776673418E-3,2.285145670E-1
5.622156925E0,9.791430473E0,5.742774159E-2,1.824527234E-1
5.641619321E0,9.765109062E0,6.281159073E-2,1.465603858E-1
5.661081717E0,9.798010826E0,-2.871387079E-2,1.746760458E-1
5.680544113E0,9.840482712E0,-1.567298770E-1,2.715853751E-1
5.700006508E0,9.895518303E0,-2.452643216E-1,2.817548811E-1
5.719468904E0,9.807581902E0,-3.188436031E-1,2.476571500E-1
5.738931300E0,9.741181374E0,-3.798605800E-1,1.890329868E-1
5.758393696E0,9.839286804E0,-3.535395563E-1,1.423729509E-1
5.777856092E0,9.954740524E0,-3.457628787E-1,1.585244983E-1
5.797318488E0,9.930811882E0,-4.492524564E-1,1.860419661E-1
5.816780883E0,9.922437668E0,-5.228317380E-1,1.890329868E-1
5.836243279E0,9.949954987E0,-5.772684813E-1,2.225325108E-1
5.855705675E0,9.949954987E0,-6.077769399E-1,2.171486616E-1
5.875168071E0,9.919445992E0,-6.460621357E-1,2.530409992E-1
5.894630571E0,1.000319481E1,-6.729813814E-1,2.835494876E-1
5.914092967E0,1.012164021E1,-5.802595019E-1,2.751746178E-1
5.933555363E0,1.015513897E1,-4.462614357E-1,2.231307179E-1
5.953017758E0,1.001934624E1,-4.199403822E-1,2.440679073E-1
5.972480154E0,9.736993790E0,-5.473581553E-1,3.050848842E-1
5.991942550E0,9.521639824E0,-7.956135273E-1,4.037888348E-1
6.011404946E0,9.561120987E0,-1.004985452E0,5.288137794E-1
6.030867342E0,9.847661972E0,-1.066002488E0,5.377869010E-1
6.050329738E0,1.006899738E1,-9.421738982E-1,4.175475538E-1
6.069792133E0,1.007258701E1,-7.004988194E-1,2.715853751E-1
6.089254529E0,1.000798035E1,-4.731806815E-1,1.585244983E-1
6.108716925E0,9.903294563E0,-3.625126183E-1,1.519442350E-1
6.128179321E0,9.871589661E0,-3.541377485E-1,2.273181528E-1
6.147641717E0,9.886545181E0,-4.510470629E-1,3.032902777E-1
6.167104113E0,9.796813965E0,-5.641079545E-1,3.266202807E-1
6.186566508E0,9.651450157E0,-6.394818425E-1,2.327020019E-1
6.206029008E0,9.732806206E0,-6.203392744E-1,1.519442350E-1
6.225491404E0,9.902696609E0,-4.713860750E-1,1.501496136E-1
6.244953800E0,9.959526062E0,-2.470589429E-1,1.447657645E-1
6.264416196E0,9.927821159E0,-1.914258152E-1,1.178465188E-1
6.283878592E0,9.865608215E0,-2.895315289E-1,1.160518974E-1
6.303340988E0,9.853643417E0,-3.924229145E-1,6.640082598E-2
6.322803383E0,9.898509026E0,-4.103690982E-1,3.230310604E-2
6.342265779E0,9.926026344E0,-2.602194548E-1,5.383851007E-2
6.361728175E0,9.875179291E0,-7.956135273E-2,1.250249892E-1
6.381190571E0,9.816555023E0,1.555334684E-2,1.680957973E-1
6.400652967E0,9.830911636E0,2.273181453E-2,1.884347796E-1
6.420115363E0,9.831509590E0,-2.512463741E-2,1.932204217E-1
6.439577758E0,9.784850121E0,-6.939185411E-2,1.555334777E-1
6.459040154E0,9.777671814E0,-7.298108935E-2,1.256231815E-1
6.478502550E0,9.835099220E0,-7.776673883E-2,1.142572835E-1
6.497964946E0,9.933204651E0,-2.392822690E-2,1.160518974E-1
6.517427446E0,9.983454704E0,6.580262445E-3,1.375873089E-1
6.536889842E0,9.903294563E0,4.785645381E-2,1.980060786E-1
6.556352238E0,9.826126099E0,7.238288224E-2,1.752742529E-1
6.575814633E0,9.870393753E0,5.982056633E-2,1.351944804E-1
6.595277029E0,9.872786522E0,7.298108935E-2,1.836491376E-1
6.614739425E0,9.880562782E0,8.075776696E-2,2.452643216E-1
6.634201821E0,9.913464546E0,8.614161611E-2,3.224328458E-1
6.653664217E0,9.899705887E0,6.939185411E-2,2.871387303E-1
6.673126613E0,9.862018585E0,8.135596663E-2,2.476571500E-1
6.692589008E0,9.844072342E0,1.010967568E-1,2.536391914E-1
6.712051404E0,9.815957069E0,1.046859920E-1,2.572284341E-1
6.731513800E0,9.805787086E0,8.793623000E-2,2.823530734E-1
6.750976196E0,9.893723488E0,9.870393574E-2,2.667997181E-1
6.770438592E0,9.945767403E0,1.399801224E-1,2.374876440E-1
6.789900988E0,9.902098656E0,1.603191197E-1,2.123630047E-1
6.809363488E0,9.877572060E0,1.447657645E-1,2.183450609E-1
6.828825779E0,9.871589661E0,9.810572863E-2,2.781656384E-1
6.848288279E0,9.861420631E0,8.673982322E-2,3.511467278E-1
6.867750675E0,9.848857880E0,9.750752151E-2,4.007977843E-1
6.887213071E0,9.801001549E0,1.465603858E-1,3.960121572E-1
6.906675467E0,9.799206734E0,1.788634956E-1,3.487538993E-1
6.926137863E0,9.832108498E0,1.956132501E-1,3.068794906E-1
6.945600258E0,9.872786522E0,2.189432681E-1,3.397808075E-1
6.965062654E0,9.956535339E0,2.159522474E-1,3.529413342E-1
6.984525050E0,1.003190899E1,2.315055877E-1,3.373879790E-1
7.003987446E0,9.910472870E0,1.962114573E-1,3.188436031E-1
7.023449842E0,9.809974670E0,1.692921966E-1,2.644068897E-1
7.042912238E0,9.872786522E0,1.663011760E-1,2.434697002E-1
7.062374633E0,9.860223770E0,1.698904037E-1,2.141576260E-1
7.081837029E0,9.844072342E0,1.926222295E-1,2.297109663E-1
7.101299425E0,9.882955551E0,1.926222295E-1,3.714857101E-1
7.120761925E0,9.932008743E0,1.794617027E-1,4.444667995E-1
7.140224321E0,9.921838760E0,1.639083475E-1,3.978067636E-1
7.159686717E0,9.805787086E0,1.908276081E-1,3.798605800E-1
7.179149113E0,9.733404160E0,1.998006850E-1,3.780659735E-1
7.198611508E0,9.803394318E0,2.063809484E-1,3.661018610E-1
7.218073904E0,9.887143135E0,1.585244983E-1,3.541377485E-1
7.237536300E0,9.866804123E0,1.710868180E-1,3.978067636E-1
7.256998696E0,9.802796364E0,2.117647976E-1,3.888336718E-1
7.276461092E0,9.755537987E0,2.213360965E-1,3.822534084E-1
7.295923488E0,9.710074425E0,1.998006850E-1,3.631108403E-1
7.315385883E0,9.759725571E0,1.998006850E-1,3.828516304E-1
7.334848279E0,9.850652695E0,2.201396823E-1,3.846462369E-1
7.354310675E0,9.929615974E0,2.835494876E-1,3.391826153E-1
7.373773071E0,9.940383911E0,2.901297510E-1,3.110669553E-1
7.393235571E0,9.952945709E0,2.584248483E-1,3.601198196E-1
7.412697967E0,9.900303841E0,2.033899277E-1,4.133601189E-1
7.432160363E0,9.824331284E0,1.615155339E-1,4.175475538E-1
7.451622758E0,9.813564301E0,1.788634956E-1,4.677968323E-1
7.471085154E0,9.809974670E0,1.926222295E-1,5.712863803E-1
7.490547550E0,9.754940033E0,1.998006850E-1,5.790630579E-1
7.510009946E0,9.842875481E0,2.033899277E-1,4.636093974E-1
7.529472342E0,9.904491425E0,1.950150430E-1,3.918247223E-1
7.548934738E0,9.883553505E0,2.111666054E-1,3.170489967E-1
7.568397133E0,9.854242325E0,1.962114573E-1,3.864408433E-1
7.587859529E0,9.869794846E0,2.201396823E-1,4.624129832E-1
7.607321925E0,9.865009308E0,2.650051117E-1,4.743770957E-1
7.626784321E0,9.793225288E0,2.632105052E-1,4.211367965E-1
7.646246821E0,9.829116821E0,2.111666054E-1,3.427718580E-1
7.665709217E0,9.909276962E0,1.459621787E-1,2.315055877E-1
7.685171613E0,1.004566765E1,7.477571070E-2,1.022931710E-1
7.704634008E0,1.008993530E1,8.315058798E-2,1.196411345E-2
7.724096404E0,9.958329201E0,1.214357466E-1,2.452643216E-2
7.743558800E0,9.814162254E0,1.298106313E-1,1.633101404E-1
7.763021196E0,9.796216011E0,1.304088384E-1,3.379862010E-1
7.782483592E0,9.850652695E0,7.417750359E-2,4.223332107E-1
7.801945988E0,9.911071777E0,1.316052489E-2,3.864408433E-1
7.821408383E0,9.942177773E0,-7.776673418E-3,2.685943544E-1
7.840870779E0,9.851250648E0,2.991028316E-2,2.494517565E-1
7.860333175E0,9.790832520E0,1.202393398E-1,3.314059377E-1
7.879795571E0,9.845867157E0,1.866401732E-1,4.187439680E-1
7.899258071E0,9.906884193E0,1.974078715E-1,4.498506486E-1
7.918720467E0,9.952945709E0,1.615155339E-1,4.085744619E-1
7.938182863E0,1.000618649E1,1.052841991E-1,4.025924206E-1
7.957645258E0,9.921838760E0,4.606183618E-2,4.851447940E-1
7.977107654E0,9.826724052E0,-1.016949583E-2,5.198407173E-1
7.996570050E0,9.863214493E0,-1.555334684E-2,6.125625968E-1
8.016032446E0,9.856036186E0,3.529413417E-2,6.502495408E-1
8.035494842E0,9.847661972E0,9.212367237E-2,6.484549642E-1
8.054957238E0,9.846465111E0,1.040877849E-1,6.945167780E-1
8.074419633E0,9.820143700E0,3.708875179E-2,7.208378315E-1
8.093882029E0,9.796813965E0,1.256231871E-2,6.879364848E-1
8.113344425E0,9.759725571E0,4.067798331E-2,6.783652306E-1
8.132806821E0,9.763913155E0,9.152546525E-2,6.544370055E-1
8.152269321E0,9.754940033E0,1.118644550E-1,6.496513486E-1
8.171731717E0,9.790832520E0,1.459621787E-1,6.795616150E-1
8.191194113E0,9.788438797E0,1.645065546E-1,7.046862841E-1
8.210656508E0,9.808179855E0,1.579262912E-1,6.610172391E-1
8.230118904E0,9.842875481E0,1.160518974E-1,6.113662124E-1
8.249581300E0,9.884152412E0,8.374879509E-2,5.922235847E-1
8.269043696E0,9.870991707E0,6.699903309E-2,5.838487148E-1
8.288506092E0,9.911071777E0,7.118647546E-2,6.083751321E-1
8.307968488E0,9.944570541E0,6.640082598E-2,6.586244106E-1
8.327430883E0,9.871589661E0,9.451649338E-2,6.340979934E-1
8.346893279E0,9.752547264E0,7.357929647E-2,5.772684813E-1
8.366355779E0,9.647860527E0,5.742774159E-2,6.329016089E-1
8.385818175E0,9.667003632E0,5.742774159E-2,6.687939167E-1
8.405280571E0,9.788438797E0,9.810572863E-2,6.257231236E-1
8.424742967E0,9.865608215E0,1.214357466E-1,5.820540786E-1
8.444205363E0,9.853643417E0,5.503492057E-2,5.868397355E-1
8.463667758E0,9.878767967E0,2.751746029E-2,5.874379873E-1
8.483130154E0,9.933204651E0,1.076770201E-2,5.545366406E-1
8.502592550E0,9.879366875E0,2.392822644E-3,4.115654826E-1
8.522054946E0,9.803992271E0,4.785645287E-3,3.696911037E-1
8.541517342E0,9.831509590E0,6.520441920E-2,4.504488707E-1
8.560979738E0,9.853045464E0,1.052841991E-1,5.066801906E-1
8.580442238E0,9.779465675E0,1.597209126E-1,4.881358147E-1
8.599904633E0,9.702896118E0,2.051845491E-1,4.438686073E-1
8.619367029E0,9.686744690E0,1.914258152E-1,4.091726840E-1
8.638829425E0,9.902696609E0,8.554340899E-2,3.385843933E-1
8.658291821E0,1.007916737E1,7.776673418E-3,2.392822653E-1
8.677754217E0,1.005882835E1,-1.118644550E-1,1.333998591E-1
8.697216613E0,9.988240242E0,-1.070788130E-1,1.345962733E-1
8.716679008E0,9.958329201E0,3.708875179E-2,2.362912297E-1
8.736141404E0,9.915258408E0,2.476571500E-1,3.774677813E-1
8.755603800E0,9.784850121E0,3.248256743E-1,3.451646566E-1
8.775066196E0,9.711270332E0,2.380858511E-1,1.992024779E-1
8.794528696E0,9.754341125E0,1.160518974E-1,1.202393398E-1
8.813991092E0,9.902696609E0,4.785645381E-2,1.477568001E-1
8.833453488E0,1.006959629E1,7.597211748E-2,2.303091735E-1
8.852915883E0,1.011864853E1,1.244267747E-1,2.883351147E-1
8.872378279E0,1.005703354E1,1.028913707E-1,2.721835673E-1
8.891840675E0,9.891928673E0,6.879365444E-2,2.721835673E-1
8.911303071E0,9.732806206E0,4.187439755E-2,2.997010350E-1
8.930765467E0,9.772886276E0,5.084748194E-2,2.847459018E-1
8.950227863E0,9.906884193E0,7.417750359E-2,2.811566591E-1
8.969690258E0,9.879366875E0,7.597211748E-2,2.805584669E-1
8.989152758E0,9.868000984E0,2.991028316E-2,2.572284341E-1
9.008615154E0,9.897911072E0,7.178467698E-3,2.416750938E-1
9.028077550E0,9.876974106E0,1.914258115E-2,1.950150430E-1
9.047539946E0,9.831509590E0,7.357929647E-2,2.021935135E-1
9.067002342E0,9.839286804E0,1.142572835E-1,2.823530734E-1
9.086464738E0,9.869196892E0,6.640082598E-2,2.949153781E-1
9.105927133E0,9.871589661E0,-1.615155302E-2,2.548356056E-1
9.125389529E0,9.860223770E0,-6.640082598E-2,2.033899277E-1
9.144851925E0,9.857233047E0,-4.965107143E-2,1.854437590E-1
9.164314425E0,9.851848602E0,4.725824669E-2,2.117647976E-1
9.183776821E0,9.821340561E0,1.351944804E-1,2.105683982E-1
9.203239217E0,9.790832520E0,1.471585929E-1,1.968096644E-1
9.222701613E0,9.811170578E0,1.399801224E-1,1.998006850E-1
9.242164008E0,9.865009308E0,9.631111473E-2,1.986042857E-1
9.261626404E0,9.903892517E0,1.142572835E-1,1.190429255E-1
9.281088800E0,9.903294563E0,1.663011760E-1,4.067798331E-2
9.300551196E0,9.834501266E0,1.657029688E-1,1.316052489E-2
9.320013592E0,9.836296082E0,1.160518974E-1,6.759724021E-2
9.339476092E0,9.929615974E0,8.075776696E-2,1.974078715E-1
9.358938488E0,9.833903313E0,5.922235921E-2,2.500499785E-1
9.378400883E0,9.780064583E0,5.922235921E-2,1.806581169E-1
9.397863279E0,9.852447510E0,6.400800496E-2,9.391828626E-2
9.417325675E0,9.900901794E0,9.451649338E-2,1.076770201E-1
9.436788071E0,9.947562218E0,9.930214286E-2,1.333998591E-1
9.456250467E0,9.940981865E0,5.324030295E-2,1.932204217E-1
9.475712863E0,9.917053223E0,2.991028316E-2,1.860419661E-1
9.495175258E0,9.852447510E0,6.520441920E-2,1.830509305E-1
9.514637758E0,9.799804688E0,7.357929647E-2,1.770688742E-1
9.534100154E0,9.839286804E0,6.879365444E-2,1.543370634E-1
9.553562550E0,9.936794281E0,3.589234129E-2,1.196411327E-1
9.573024946E0,1.003430176E1,2.691925503E-2,1.130608693E-1
9.592487342E0,9.978668213E0,6.999006122E-2,9.810572863E-2
9.611949738E0,9.850054741E0,1.082752272E-1,8.494520187E-2
9.631412133E0,9.781859398E0,1.351944804E-1,2.123630047E-1
9.650874529E0,9.721440315E0,9.750752151E-2,3.134597540E-1
9.670337029E0,9.704689980E0,1.674975827E-2,2.374876440E-1
9.689799425E0,9.737591743E0,-4.187439755E-2,8.434699476E-2
9.709261821E0,9.857233047E0,-3.589234129E-2,1.136590727E-2
9.728724217E0,9.934999466E0,8.494520187E-2,1.136590727E-2
9.748186613E0,9.911669731E0,1.680957973E-1,1.974078640E-2
9.767649008E0,9.896714211E0,1.866401732E-1,4.845465720E-2
9.787111404E0,9.963115692E0,1.405783296E-1,6.879365444E-2
9.806573800E0,9.950552940E0,1.154536903E-1,9.212367237E-2
9.826036196E0,9.842277527E0,1.028913707E-1,6.580262631E-2
9.845498696E0,9.879366875E0,3.948157281E-2,-6.580262631E-2
9.864961092E0,9.895518303E0,4.845465720E-2,-9.810572863E-2
9.884423488E0,9.854242325E0,8.673982322E-2,-1.016949639E-1
9.903885883E0,9.859625816E0,1.070788130E-1,-2.691925503E-2
9.923348279E0,9.844072342E0,8.973085135E-2,1.010967568E-1
9.942810675E0,9.789037704E0,4.546362907E-2,1.100698411E-1
9.962273071E0,9.739984512E0,5.383851007E-3,4.307080805E-2
9.981735467E0,9.806385040E0,3.409772366E-2,-4.187439568E-3
1.000119797E1,9.899106979E0,1.477568001E-1,-2.273181453E-2
1.002066036E1,9.969097137E0,2.572284341E-1,-3.110669367E-2
1.004012276E1,9.911669731E0,2.057827413E-1,-1.202393398E-1
1.005958515E1,9.749555588E0,5.024927482E-2,-2.153540403E-1
1.007904755E1,9.749555588E0,-3.170489892E-2,-2.315055877E-1
1.009850995E1,9.829116821E0,4.247260094E-2,-1.154536903E-1
1.011797234E1,9.882955551E0,1.860419661E-1,-4.007977992E-2
1.013743474E1,9.848259926E0,2.673979402E-1,-7.298108935E-2
1.015689724E1,9.643673897E0,1.956132501E-1,-2.261217386E-1
1.017635963E1,9.393623352E0,6.699903309E-2,-4.713860750E-1
1.019582203E1,9.284749985E0,4.067798331E-2,-7.328019142E-1
1.021528442E1,9.247062683E0,1.890329868E-1,-9.427721500E-1
1.023474682E1,9.144171715E0,3.457628787E-1,-1.127617717E0
1.025420922E1,8.819944382E0,4.241278172E-1,-1.332802176E0
1.027367161E1,8.048856735E0,3.894318938E-1,-1.594218135E0
1.029313401E1,7.040880680E0,4.145565331E-1,-1.722832322E0
1.031259651E1,6.067600250E0,4.773681164E-1,-1.487737536E0
1.033205890E1,5.303092957E0,2.937189937E-1,-5.676971674E-1
1.035152130E1,5.029115200E0,-3.529413417E-2,1.033699393E0
1.037098370E1,5.765506268E0,-1.369891018E-1,2.064407825E0
1.039044609E1,7.827520847E0,-8.315058798E-2,1.557129383E0
1.040990849E1,9.964311600E0,-1.932204217E-1,4.348955154E-1
1.042937088E1,1.076590729E1,7.956135273E-2,-4.504488707E-1
1.044883328E1,1.287458229E1,6.580262184E-1,-1.333998591E-1
1.046829578E1,1.754417610E1,1.131206870E0,2.662015259E-1
1.048775818E1,2.172204399E1,1.648654819E0,1.034895778E-1
1.050722057E1,2.337548447E1,1.043270707E0,-3.565305769E-1
1.052668297E1,2.436850548E1,-7.298108935E-1,-8.697910309E-1
1.054614536E1,2.539442825E1,-2.008176327E0,-1.109671474E0
1.056560776E1,2.422553444E1,-1.407577872E0,-2.384447813E0
1.058507026E1,1.969951057E1,-6.299105883E-1,-4.663012981E0
1.060453265E1,1.465424442E1,-5.682953596E-1,-5.581857204E0
1.062399505E1,1.071805096E1,-7.322037220E-1,-4.746761799E0
1.064345745E1,8.219944000E0,-6.436693072E-1,-3.223730326E0
1.066291984E1,5.985645771E0,-3.391826153E-1,-1.431506157E0
1.068238224E1,2.310868502E0,2.931207716E-1,4.480560422E-1
1.070184463E1,-2.317448616E0,1.119840980E0,1.653440475E0
1.072130703E1,-5.097908497E0,1.270588875E0,1.189831018E0
1.074076953E1,-5.836094379E0,1.050449133E0,7.196413875E-1
1.076023193E1,-4.789234638E0,6.245267391E-1,7.304090858E-1
1.077969432E1,-2.825325251E0,-5.982056726E-3,9.774680734E-1
1.079915672E1,-1.069591761E0,-6.406782866E-1,1.195214868E0
1.081861911E1,5.599204898E-1,-9.613165259E-1,9.918249846E-1
1.083808151E1,1.449452281E0,-1.050449133E0,1.974078715E-1
1.085754390E1,1.362712502E0,-6.550351977E-1,-3.038884699E-1
1.087700630E1,9.882357717E-1,4.666004330E-2,-8.949156404E-1
1.089646870E1,7.585247755E-1,8.279166222E-1,-1.417747378E0
1.091593120E1,1.557129383E0,1.874178290E0,-9.756734371E-1
1.093539359E1,4.037888050E0,2.661417007E0,-6.807580590E-1
1.095485599E1,7.424330235E0,2.921038151E0,-4.133601189E-1
1.097431838E1,1.215135193E1,1.578664780E0,-2.392822690E-2
1.099378078E1,2.325105858E1,-1.548156261E0,2.630908489E0
1.101324318E1,3.866442490E1,-1.732403636E0,6.209374666E-1
1.103270557E1,4.297928238E1,1.133599758E0,-4.539782524E0
1.105216807E1,3.284328461E1,4.448257446E0,-3.547359467E0
1.107163047E1,2.726681137E1,3.075375319E0,2.088934183E0
1.109109286E1,2.947359276E1,1.375873014E-2,4.377668858E0
1.111055526E1,2.937608528E1,-3.375674486E0,9.954141974E-1
1.113001765E1,2.281676102E1,-2.920439959E0,-1.582253933E0
1.114948015E1,1.545883083E1,-4.109672904E-1,-3.350549936E0
1.116894255E1,1.023709393E1,1.536192179E0,-3.086741209E0
1.118840495E1,5.731408596E0,2.451446772E0,-1.945364833E0
1.120786734E1,1.555334684E-2,3.165106058E0,-3.888336718E-1
1.122732974E1,-6.215955257E0,3.196212769E0,5.407779217E-1
1.124679213E1,-7.715058327E0,6.945167780E-1,-8.656035662E-1
1.126625453E1,-7.283154011E0,-1.453639746E0,-6.257231236E-1
1.128571693E1,-5.166702271E0,-2.518445730E0,5.120640397E-1
1.130517942E1,-2.196012974E0,-2.359921217E0,1.051645517E0
1.132464182E1,5.485545993E-1,-1.829911113E0,8.506484628E-1
1.134410422E1,2.385046005E0,-6.747759581E-1,3.487538993E-1
1.136356661E1,2.774477959E0,6.484549642E-1,1.549352705E-1
1.138302901E1,1.855633974E0,1.610369682E0,4.253242314E-1
1.140249140E1,6.394818425E-1,2.021337032E0,3.391826153E-1
1.142195380E1,-4.187439755E-2,1.666002750E0,-6.197410822E-1
1.144141620E1,-7.836493850E-2,1.007976532E0,-1.254437327E0
1.146087859E1,2.644068897E-1,4.372883439E-1,-6.693921089E-1
1.148034109E1,2.073979139E0,2.656033039E-1,5.563312769E-2
1.149980349E1,4.652245522E0,7.477571070E-2,4.211367965E-1
1.151926588E1,1.719781494E1,-1.471585929E-1,3.457628727E0
1.153872828E1,5.017629623E1,1.967498422E0,4.780859470E0
1.155819068E1,5.127759171E1,2.239083767E0,-5.486742496E0
1.157765318E1,3.456372452E1,2.368894368E-1,-4.273581028E0
1.159711557E1,2.559004211E1,-9.403793216E-1,2.991028363E-3
1.161657797E1,2.274198532E1,-1.274776220E0,2.053640127E0
1.163604036E1,1.859761620E1,-7.908278704E-1,3.774677813E-1
1.165550276E1,1.316530991E1,8.434699476E-2,-1.445863128E0
1.167496515E1,8.019545555E0,5.306084156E-1,-1.818545222E0
1.169442765E1,3.809373617E0,5.401797295E-1,-5.509474277E-1
1.171389005E1,-7.860422134E-1,4.618147612E-1,1.080359459E0
1.173335245E1,-4.650450706E0,1.758724600E-1,1.056431174E0
1.175281484E1,-5.797809124E0,-7.956135273E-2,-2.446661144E-1
1.177227724E1,-5.635695457E0,4.917250574E-1,-7.555337548E-1
1.179173963E1,-4.945964336E0,1.127019525E0,-3.349951804E-1
1.181120203E1,-3.614358664E0,1.090528965E0,5.330012441E-1
1.183066442E1,-1.987837434E0,6.801598072E-1,1.171286702E0
1.185012693E1,-1.471585929E-1,4.432703853E-1,1.101894855E0
1.186958932E1,1.750349760E0,1.232303679E-1,8.793623000E-2
1.188905172E1,3.226123095E0,-4.241278172E-1,-1.228116274E0
1.190851411E1,3.415156126E0,-6.861419082E-1,-2.557927370E0
1.192797651E1,2.931805849E0,6.580262631E-2,-3.153740168E0
1.194743890E1,2.903092146E0,8.751748800E-1,-1.905285001E0
1.196690130E1,4.487140656E0,1.462014675E0,-3.678964674E-1
1.198636370E1,7.281359196E0,2.123031855E0,1.992623091E0
1.200582609E1,1.215912819E1,1.575673699E0,2.219343036E-1
1.202528859E1,2.223470688E1,4.103690982E-1,-1.503290772E0
1.204475099E1,3.701636887E1,-3.744767308E-1,1.963909149E0
1.206421338E1,4.439523315E1,-8.177471161E-1,5.688936114E-1
1.208367578E1,3.352464294E1,9.529415965E-1,-6.287141442E-1
1.210313818E1,2.490449715E1,1.950748682E0,1.454836130E0
1.212260057E1,2.467717934E1,1.747956991E0,1.841875196E0
1.214206307E1,2.548655128E1,1.734796464E-1,1.503889084E0
1.216152547E1,2.271626091E1,-9.361918569E-1,-8.494520187E-2
1.218098786E1,1.707039642E1,-1.106082320E0,-8.021938205E-1
1.220045026E1,1.097946644E1,-8.057830334E-1,-1.043868899E0
1.221991265E1,5.404788017E0,-4.959124923E-1,-8.709874153E-1
1.223937515E1,3.589234054E-1,3.002992272E-1,-4.911268353E-1
1.225883755E1,-4.254438877E0,1.352542996E0,-1.094716340E-1
1.227829995E1,-5.779264927E0,1.570289850E0,-9.487541914E-1
1.229776234E1,-5.032704353E0,1.089930773E0,-1.447059512E0
1.231722474E1,-3.837489367E0,2.350948304E-1,-8.518448472E-1
1.233668713E1,-2.000399828E0,-7.471588850E-1,1.411765367E-1
1.235614953E1,5.742774159E-2,-1.341775298E0,9.517452121E-1
1.237561193E1,1.477568030E0,-1.409372568E0,1.156331539E0
1.239507432E1,1.819143414E0,-7.866404653E-1,7.776673436E-1
1.241453682E1,1.357926846E0,1.591227055E-1,9.391828626E-2
1.243399922E1,9.164510965E-1,1.034895778E0,-1.045065284E0
1.245346161E1,6.652047038E-1,1.756929994E0,-1.933400750E0
1.247292401E1,8.602197170E-1,2.245664120E0,-2.189432621E0
1.249238640E1,1.797608018E0,2.484348059E0,-2.097309113E0
1.251184880E1,3.951148272E0,2.421536446E0,-2.711666346E0
1.253131120E1,8.843872070E0,2.142772675E0,-3.162115097E0
1.255077359E1,2.388276291E1,7.579265833E-1,9.690931439E-2
1.257023609E1,4.881118774E1,-5.281557560E0,-1.818545163E-1
1.258969849E1,3.930211258E1,-5.100301266E0,-1.378265858E0
1.260916088E1,2.693540573E1,1.990828395E0,-5.168496966E-1
1.262862328E1,2.381217384E1,7.137789726E0,7.232306600E-1
1.264808578E1,2.361775780E1,5.672185898E0,-1.384846091E0
1.266754818E1,2.222992134E1,-9.672985673E-1,-3.102294445E0
1.268701057E1,1.728515244E1,-3.065205812E0,-3.115455151E0
1.270647297E1,1.179003525E1,-1.944766641E0,-1.942971945E0
1.272593536E1,7.205985546E0,-6.717849374E-1,-1.332203984E0
1.274539776E1,2.964707375E0,-3.236292601E-1,-8.063812256E-1
1.276486026E1,-5.108676553E-1,5.982056726E-3,7.716853172E-2
1.278432265E1,-3.468994617E0,5.234299302E-1,1.591227055E-1
1.280378505E1,-4.438087940E0,8.703892231E-1,-1.021735311E0
1.282324745E1,-4.709673405E0,1.456032634E0,-1.205982566E0
1.284270984E1,-4.444668293E0,1.738385677E0,-7.118647546E-2
1.286217224E1,-3.104089260E0,1.123430252E0,1.116850019E0
1.288163474E1,-1.206580877E0,9.212367237E-2,1.548754454E0
1.290109713E1,-4.187439568E-3,-7.094719410E-1,1.645663738E0
1.292055953E1,5.778666735E-1,-1.138983607E0,9.655039310E-1
1.294002192E1,1.007976532E0,-1.119840980E0,-5.952146053E-1
1.295948432E1,1.383649707E0,-6.813562512E-1,-1.609173179E0
1.297894672E1,2.109871387E0,-1.734796353E-2,-2.084746838E0
1.299840911E1,3.875176191E0,9.152546525E-1,-2.847458839E0
1.301787151E1,7.025925636E0,1.746162295E0,-3.382853031E0
1.303733401E1,1.200538921E1,2.230708838E0,-3.250051260E0
1.305679640E1,2.111546326E1,3.440878868E0,1.316052489E-2
1.307625880E1,3.790530014E1,3.378067255E0,1.984846354E0
1.309572120E1,4.060201263E1,-1.877169371E0,-2.149353027E0
1.311518359E1,2.736073112E1,-2.729014158E0,-2.662613392E0
1.313464609E1,2.364348030E1,-6.065805554E-1,-1.077966571E0
1.315410849E1,2.908655357E1,2.119442701E0,-7.058826834E-2
1.317357088E1,2.901297379E1,2.345564365E0,-1.607976794E0
1.319303328E1,2.256790733E1,2.751746178E-1,-2.563909531E0
1.321249568E1,1.565085506E1,-6.699903309E-2,-2.331805706E0
1.323195818E1,9.508479118E0,2.626122832E-1,-1.463211060E0
1.325142057E1,4.583451748E0,4.642075896E-1,-2.871387303E-1
1.327088297E1,2.811566591E-1,8.374879360E-1,8.757730722E-1
1.329034536E1,-4.028914928E0,1.189232826E0,1.077966571E0
1.330980776E1,-6.037689686E0,6.101697683E-1,-1.123430252E0
1.332927015E1,-5.593821049E0,-9.571290761E-2,-2.271386862E0
1.334873255E1,-4.971088886E0,-3.487538993E-1,-1.180259824E0
1.336819505E1,-3.802793503E0,-3.110669553E-1,5.964110494E-1
1.338765745E1,-1.393819213E0,-3.343969584E-1,1.294517040E0
1.340711984E1,8.440681696E-1,-4.719842672E-1,1.092323542E0
1.342658224E1,1.965105653E0,-5.389832854E-1,2.877369225E-1
1.344604463E1,2.120639086E0,-2.907279432E-1,-6.149554253E-1
1.346550703E1,1.713261008E0,2.614158690E-1,-1.617548108E0
1.348496943E1,1.100100160E0,7.980063558E-1,-2.493321180E0
1.350443192E1,1.075573802E0,1.135394335E0,-3.342773199E0
1.352389432E1,2.712264538E0,1.282552958E0,-4.085744858E0
1.354335672E1,5.967101574E0,1.081555843E0,-3.355335474E0
1.356281911E1,1.638186264E1,7.160521746E-1,2.721835852E0
1.358228151E1,5.370809937E1,3.559323549E-1,4.744967461E0
1.360174401E1,5.307998657E1,1.342971683E0,-8.831310272E0
1.362120640E1,3.174318504E1,-9.020941257E-1,-6.290730953E0
1.364066880E1,2.283769798E1,-1.410568953E0,-2.793620527E-1
1.366013120E1,2.122852516E1,-1.217348576E0,2.673979282E0
1.367959370E1,1.940220261E1,-1.210170031E0,-2.321037948E-1
1.369905609E1,1.478584957E1,1.304088384E-1,-3.599403381E0
1.371851849E1,9.738189697E0,7.178468108E-1,-4.024129391E0
1.373798088E1,5.496313572E0,5.491527915E-1,-2.577069998E0
1.375744328E1,1.075573802E0,-1.196411345E-2,-1.054038405E0
1.377690568E1,-4.275375843E0,-2.003988922E-1,3.978067636E-1
1.379636818E1,-7.217949390E0,3.535395563E-1,-8.434699476E-2
1.381583057E1,-5.897111416E0,1.139581800E0,-2.009970993E-1
1.383529297E1,-5.359922886E0,1.302293777E0,6.849454641E-1
1.385475536E1,-3.430709362E0,5.593222976E-1,1.171884894E0
1.387421776E1,-9.547362328E-1,-2.530409992E-1,8.967102766E-1
1.389368015E1,1.065404296E0,-9.774680734E-1,5.659025311E-1
1.391314265E1,2.171486616E0,-1.408176184E0,1.956132501E-1
1.393260505E1,2.615355253E0,-1.162911773E0,-4.534398913E-1
1.395206745E1,2.249851465E0,-4.743770957E-1,-1.061216831E0
1.397152984E1,1.397408366E0,7.842476368E-1,-1.545165181E0
1.399099224E1,9.056833982E-1,2.212762833E0,-2.207378864E0
1.401045463E1,1.214357495E0,3.170490026E0,-1.738983870E0
1.402991703E1,3.397209883E0,3.348157167E0,-9.308080077E-1
1.404937953E1,7.973483086E0,2.448455811E0,-7.860422134E-1
1.406884193E1,1.595294857E1,2.895315289E-1,-1.433300734E0
1.408830432E1,3.460380554E1,-1.427916884E0,1.549950838E0
1.410776672E1,6.635297394E1,-3.625126183E-1,-4.640281200E0
1.412722922E1,4.605046844E1,1.509272933E0,-2.900699139E0
1.414669161E1,2.573839760E1,2.258226395E0,5.647061467E-1
1.416615401E1,2.458565521E1,3.314059377E-1,-8.590233326E-1
1.418561640E1,2.344786644E1,-8.572286963E-1,-1.693520188E0
1.420507880E1,1.790608978E1,5.826523304E-1,-2.118844509E0
1.422454130E1,1.047278690E1,2.009372711E0,-8.009973764E-1
1.424400370E1,3.324228764E0,1.747956991E0,1.177268744E0
1.426346609E1,-2.474178553E0,8.620143533E-1,2.315055847E0
1.428292849E1,-5.723033428E0,-8.476574421E-1,-7.782655358E-1
1.430239099E1,-5.084748268E0,-2.310270309E0,-3.762115479E0
1.432185338E1,-4.966901779E0,-1.318445325E0,-2.084746838E0
1.434131578E1,-4.606781960E0,7.579265833E-1,7.124629617E-1
1.436077818E1,-2.294118643E0,1.308874011E0,2.448455811E0
1.438024057E1,-4.504488707E-1,4.624129832E-1,2.255833626E0
1.439970297E1,1.301695466E0,-6.161518097E-1,7.202396393E-1
1.441916547E1,2.150549412E0,-1.052842021E0,-6.209374666E-1
1.443862786E1,1.969292998E0,-7.782655358E-1,-1.441077471E0
1.445809026E1,8.338986635E-1,-1.310070455E-1,-1.194018483E0
1.447755265E1,-5.593222976E-1,2.500499785E-1,-6.257231236E-1
1.449701505E1,-4.444667995E-1,5.270192027E-1,-8.135597110E-1
1.451647755E1,9.714859724E-1,1.019342422E0,-2.021337032E0
1.453593995E1,3.339184046E0,1.690529227E0,-3.493520975E0
1.455540234E1,8.044071198E0,3.379862070E0,-7.421937466E0
1.457486474E1,3.066282654E1,5.961119175E0,2.597409010E0
1.459432724E1,7.508378601E1,1.463809252E0,-2.459821701E0
1.461378963E1,4.891707230E1,-3.390031576E0,-8.770293236E0
1.463325203E1,2.163829422E1,-2.815753937E0,-1.369292736E0
1.465271443E1,1.706381607E1,-2.428714991E0,-5.248058319E0
1.467217692E1,1.401536083E1,-2.418545485E0,-3.294318676E0
1.469163932E1,1.069352436E1,-1.496112347E0,-1.991426587E0
1.471110172E1,7.646264553E0,2.015953064E-1,-2.247458696E0
1.473056411E1,3.852444410E0,2.200798512E0,-1.987239242E0
1.475002661E1,-2.416152716E0,3.787838221E0,-4.486542568E-2
1.476948901E1,-7.830512047E0,3.404986620E0,3.625126183E-1
1.478895140E1,-7.627720356E0,8.853443861E-1,-1.279561877E0
1.480841380E1,-5.240281582E0,-1.010369420E0,-1.235892892E0
1.482787620E1,-4.098905087E0,-1.540977836E0,1.051047325E0
1.484733870E1,-2.360519648E0,-1.631306887E0,2.249851465E0
1.486680109E1,-4.971089065E-1,-1.573879123E0,2.483749866E0
1.488626349E1,1.146162033E0,-1.731805444E0,2.435295343E0
1.490572588E1,2.291127682E0,-1.933998942E0,1.409372568E0
1.492518828E1,2.455035925E0,-1.964507341E0,-6.179464459E-1
1.494465078E1,1.809572101E0,-1.264008522E0,-3.326621771E0
1.496411318E1,1.422533035E0,5.838487148E-1,-4.229313850E0
1.498357557E1,2.472383976E0,2.964108944E0,-2.757129908E0
1.500303797E1,5.216951370E0,4.840680122E0,-1.292124242E-1
1.502250047E1,9.590433121E0,5.635097504E0,2.168495417E0
1.504196286E1,2.032284164E1,4.262813568E0,2.049452543E0
1.506142526E1,4.412723923E1,-1.880160451E0,3.982254982E0
1.508088776E1,5.892924118E1,-9.455837250E0,-5.756533146E0
1.510035015E1,3.673999786E1,-2.914458036E0,-6.605386734E0
1.511981255E1,2.588794899E1,3.543172121E0,-2.974876642E0
1.513927495E1,2.745285416E1,4.935196877E0,-5.347958803E-1
1.515873745E1,2.459283257E1,2.356332064E0,-3.102892876E0
1.517819984E1,1.638006783E1,4.265206456E-1,-3.312264681E0
1.519766224E1,8.874381065E0,9.260223508E-1,-1.282552958E0
1.521712474E1,1.963909149E0,1.817348838E0,6.658028960E-1
1.523658713E1,-5.062614441E0,2.472383976E0,2.394019127E0
1.525604953E1,-8.921639442E0,1.875374794E0,-4.247260094E-2
1.527551193E1,-6.122036934E0,-2.572284266E-2,-2.751147747E0
1.529497443E1,-5.584847927E0,-1.344766378E0,-2.002792597E0
1.531443682E1,-4.735994339E0,-1.486541033E0,-1.902294010E-1
1.533389922E1,-2.201995134E0,-1.171286702E0,1.321436286E0
1.535336161E1,7.070791125E-1,-7.854440212E-1,1.887338877E0
1.537282401E1,2.364108801E0,-3.774677813E-1,1.234696507E0
1.539228651E1,2.603390932E0,2.177468538E-1,-3.128615618E-1
1.541174890E1,2.112264156E0,7.884350419E-1,-1.393819213E0
1.543121130E1,1.049252748E0,8.973084688E-1,-9.421738982E-1
1.545067370E1,-9.631111473E-2,5.970092416E-1,-8.434699774E-1
1.547013620E1,1.716850251E-1,1.012762189E0,-1.016351461E0
1.548959859E1,3.246462107E0,2.239083767E0,-1.603191197E-1
1.550906099E1,1.825304985E1,5.653641701E0,1.092622662E1
1.552852349E1,6.456971741E1,3.760320902E0,8.808578491E0
1.554798588E1,6.548018646E1,-1.111884880E1,-1.558565044E1
1.556744828E1,2.547877502E1,-9.223732948E0,-1.064387321E1
1.558691078E1,1.503829193E1,-4.825126648E0,-1.063071251E1
1.560637318E1,8.904291153E0,1.280758262E0,-6.337390900E0
1.562583557E1,3.692723513E0,5.328815937E0,5.718846321E-1
1.564529807E1,-1.265803218E0,6.809973240E0,5.496912003E0
1.566476047E1,-5.114658356E0,6.474977970E0,4.555335999E0
1.568422286E1,-4.576871395E0,3.884149313E0,1.612762451E0
1.570368526E1,-4.441078663E0,1.458425403E0,-1.920240223E-1
1.572314776E1,-5.173282623E0,-1.104287624E0,-1.183848977E0
1.574261015E1,-4.884947300E0,-2.872583628E0,-8.410771489E-1
1.576207255E1,-2.117049932E0,-2.830111027E0,-5.192425251E-1
1.578153495E1,1.335793257E0,-2.076371908E0,-8.374879137E-3
1.580099745E1,3.068794966E0,-6.448656917E-1,5.018945336E-1
1.582045984E1,2.803789854E0,1.080957651E0,5.066801906E-1
1.583992224E1,2.090130568E0,2.024327993E0,-1.006181955E0
1.585938474E1,2.649452925E0,1.877169371E0,-3.422334671E0
1.587884713E1,3.479762316E0,9.762716293E-1,-3.430111170E0
1.589830953E1,5.260620594E0,-6.999006122E-2,-9.858429432E-1
1.591777192E1,8.035696983E0,-1.298106313E-1,3.576671600E0
1.593723443E1,1.448614788E1,-8.075776696E-1,4.366302967E0
1.595669682E1,3.101157951E1,-2.793022156E0,-6.041877270E-1
1.597615922E1,4.780381012E1,-4.743770957E-1,-8.841479421E-1
1.599562172E1,4.137010956E1,7.782655358E-1,-2.298904419E0
1.601508411E1,2.632762909E1,6.269195080E-1,-1.709671736E0
1.603454661E1,2.376371956E1,-1.441675574E-1,2.309073806E-1
1.605400901E1,2.772503853E1,-5.910272002E-1,1.475175142E0
1.607347140E1,2.490150642E1,7.232306600E-1,-1.842473447E-1
1.609293390E1,1.795454407E1,1.527219057E0,-1.549950838E0
1.611239630E1,1.033998489E1,2.249851465E0,-1.415354609E0
1.613185870E1,3.796811342E0,2.212762833E0,-7.579265833E-1
1.615132120E1,-1.310668588E0,1.140778184E0,-1.956132501E-1
1.617078359E1,-4.724628448E0,-3.870390654E-1,-9.314061999E-1
1.619024599E1,-5.330012321E0,-1.855633974E0,-1.844268084E0
1.620970849E1,-4.977071285E0,-1.995015860E0,-8.422735929E-1
1.622917088E1,-3.331407309E0,-9.080761671E-1,6.711867452E-1
1.624863328E1,-1.685743570E0,1.710868180E-1,1.027119160E0
1.626809578E1,2.350948304E-1,4.677968323E-1,9.505487680E-1
1.628755818E1,1.706680775E0,6.329016089E-1,6.113662124E-1
1.630702057E1,2.126621008E0,5.850451589E-1,1.339980662E-1
1.632648297E1,1.790429592E0,5.060819983E-1,-1.836491376E-1
1.634594547E1,9.020941257E-1,5.096712112E-1,-6.011967063E-1
1.636540786E1,-1.250249892E-1,3.990031779E-1,-1.433300734E0
1.638487026E1,-3.726821244E-1,6.460621208E-2,-2.611765862E0
1.640433276E1,1.241276741E0,2.404786795E-1,-3.326621771E0
1.642379515E1,4.091726780E0,6.245267391E-1,-4.661816597E0
1.644325755E1,1.302353573E1,1.498505235E0,6.675975323E-1
1.646272005E1,5.655795288E1,-3.050848842E-1,1.128574753E1
1.648218245E1,6.684349823E1,-4.121636868E0,-7.191628456E0
1.650164495E1,3.080101204E1,-1.529013634E0,-6.980462074E0
1.652110734E1,1.830808449E1,-1.435693651E-1,-4.820341110E0
1.654056984E1,1.499462318E1,3.535395563E-1,-2.679961443E0
1.656003224E1,1.288594818E1,-1.204786181E0,-9.475577474E-1
1.657949463E1,9.915258408E0,-2.158924341E0,-2.092523336E0
1.659895713E1,6.495915413E0,-1.071984529E0,-2.300698996E0
1.661841953E1,4.624129832E-1,1.204187989E0,-3.918247223E-1
1.663788203E1,-7.975875854E0,3.687937975E0,2.627319336E0
1.665734442E1,-9.385248184E0,3.731606960E0,3.948157430E-1
1.667680682E1,-5.538187981E0,1.453639746E0,-1.658824325E0
1.669626932E1,-4.180261135E0,-2.943171859E-1,-8.057830334E-1
1.671573172E1,-3.326621771E0,-1.115055323E0,6.281159520E-1
1.673519411E1,-1.491924882E0,-1.363908887E0,1.141376376E0
1.675465661E1,2.859423161E-1,-1.042672515E0,9.355936646E-1
1.677411901E1,1.843669891E0,-4.522434771E-1,4.247260094E-1
1.679358140E1,2.456830740E0,1.501496136E-1,-1.060618639E0
1.681304390E1,2.349153519E0,6.083751321E-1,-2.420938253E0
1.683250630E1,2.127219439E0,1.220937729E0,-2.832503796E0
1.685196870E1,2.561516523E0,1.717448473E0,-2.355733871E0
1.687143120E1,4.783850670E0,2.456232548E0,-1.538584948E0
1.689089359E1,7.704888821E0,2.909074068E0,1.948355794E0
1.691035599E1,1.551087475E1,1.869392633E0,2.607578516E0
1.692981849E1,3.798665619E1,-1.466202021E0,4.088735580E0
1.694928088E1,5.715675735E1,-4.478765965E0,-4.490131855E0
1.696874338E1,3.929672623E1,-3.056830883E0,-7.077371120E0
1.698820578E1,2.844766998E1,3.253640652E0,-1.015154958E0
1.700766828E1,2.549133873E1,4.459623337E0,2.500499725E0
1.702713068E1,2.474956322E1,9.260223508E-1,1.526022673E0
1.704659318E1,2.015953064E1,-2.318047047E0,-2.060818434E0
1.706605557E1,1.405065441E1,-2.262413740E0,-3.053839922E0
1.708551807E1,8.047062874E0,6.161518395E-2,-2.501696110E0
1.710498047E1,1.789831281E0,2.264806747E0,-1.279561877E0
1.712444286E1,-4.436891556E0,3.713062525E0,4.175475538E-1
1.714390536E1,-8.488538742E0,3.871587038E0,2.075773627E-1
1.716336776E1,-6.391229153E0,1.447059512E0,-9.487541914E-1
1.718283026E1,-5.635695457E0,-1.039083242E0,-1.161117196E0
1.720229265E1,-4.899902344E0,-2.271386862E0,-3.619144261E-1
1.722175505E1,-2.951546669E0,-2.629712105E0,4.929214716E-1
1.724121755E1,-5.389832854E-1,-2.282154560E0,7.100701332E-1
1.726067995E1,1.232901812E0,-1.173679471E0,-2.871387079E-2
1.728014245E1,2.106282234E0,2.117647976E-1,-1.431506157E0
1.729960484E1,2.153540373E0,1.710868239E0,-2.152942181E0
1.731906724E1,1.487737536E0,2.771486759E0,-1.666002750E0
1.733852974E1,5.054838061E-1,2.854637384E0,-1.522433400E0
1.735799213E1,1.305882931E0,2.602792740E0,-1.718046665E0
1.737745463E1,3.260818958E0,1.966302037E0,-1.648056626E0
1.739691703E1,9.572486877E0,8.751748800E-1,2.883351147E-1
1.741637953E1,3.692125320E1,2.085943222E0,5.513063431E0
1.743584193E1,6.320162582E1,-2.848655462E0,-4.170690060E0
1.745530442E1,3.959343719E1,-6.573083878E0,-5.792425632E0
1.747476682E1,2.427159691E1,-4.665405750E0,-1.534397483E0
1.749422932E1,2.080619049E1,-6.466603279E-1,2.110469580E0
1.751369172E1,1.926581192E1,4.342973232E0,2.745165825E0
1.753315422E1,1.431386471E1,3.594617844E0,-3.002394199E0
1.755261661E1,8.528617859E0,1.146162033E0,-4.341776848E0
1.757207911E1,4.703691006E0,-3.589234054E-1,-2.827120066E0
1.759154151E1,3.876372576E-1,-6.053841114E-1,-1.472782373E0
1.761100401E1,-4.659423828E0,1.244267747E-1,-2.554338276E-1
1.763046640E1,-6.866802692E0,8.291130662E-1,-9.918249846E-1
1.764992890E1,-5.465207100E0,1.554138303E0,-1.071984529E0
1.766939130E1,-4.232305050E0,1.703689694E0,3.655036688E-1
1.768885380E1,-3.157927752E0,1.034895778E0,1.611566067E0
1.770831620E1,-1.592423439E0,1.728814393E-1,1.499701619E0
1.772777870E1,3.529413417E-2,-5.485545993E-1,1.177866936E0
1.774724109E1,1.439282775E0,-1.085743308E0,4.247260094E-1
1.776670349E1,2.505883455E0,-1.364507079E0,-7.190431952E-1
1.778616599E1,2.673381090E0,-9.074779749E-1,-1.322034478E0
1.780562838E1,1.745564103E0,4.522434771E-1,-2.072184324E0
1.782509088E1,1.303490162E0,1.668395638E0,-3.052045345E0
1.784455328E1,2.931805849E0,2.291725874E0,-3.604189157E0
1.786401578E1,6.300302029E0,2.928814888E0,-2.877967358E0
1.788347818E1,1.115533924E1,3.166302681E0,9.571290575E-3
1.790294068E1,2.140499496E1,2.538186550E0,8.321040869E-1
1.792240307E1,4.546662140E1,5.802595019E-1,5.533402562E-1
1.794186557E1,5.698985672E1,-4.329812527E0,-4.077968121E0
1.796132797E1,3.263032532E1,-3.685544968E0,-2.593221426E0
1.798079047E1,2.091267204E1,-1.152742267E0,-9.930214286E-2
1.800025297E1,2.374637222E1,-1.003789067E0,6.628118753E-1
1.801971536E1,2.791586494E1,-5.252245665E-1,-2.201396942E0
1.803917786E1,2.367757797E1,1.998605132E0,-3.848855257E0
1.805864026E1,1.392084408E1,3.705285788E0,-2.189432621E0
1.807810276E1,5.324628353E0,3.330210924E0,8.745766878E-1
1.809756515E1,-8.356932998E-1,1.898704767E0,3.057429075E0
1.811702765E1,-5.207380295E0,-2.183450609E-1,1.409372568E0
1.813649005E1,-6.327221394E0,-2.709273338E0,-2.399402857E0
1.815595255E1,-5.067998409E0,-3.592225075E0,-4.232305050E0
1.817541495E1,-4.159922123E0,-1.701296926E0,-1.931007862E0
1.819487745E1,-3.166302681E0,6.873382926E-1,7.357929349E-1
1.821433984E1,-1.685145378E0,1.699502230E0,1.287936807E0
1.823380234E1,-7.238288224E-2,1.305882931E0,6.604190469E-1
1.825326474E1,8.823533654E-1,5.024927258E-1,-7.118647546E-2
1.827272724E1,1.079761267E0,-1.603191197E-1,-6.418746710E-1
1.829218963E1,7.728816867E-1,-4.205385745E-1,-1.463809252E0
1.831165213E1,4.594219327E-1,-2.512463629E-1,-1.634896040E0
1.833111453E1,6.281159520E-1,-1.848455518E-1,-1.880758643E0
1.835057703E1,2.539981127E0,1.304088384E-1,-3.366103172E0
1.837003953E1,5.853442192E0,1.136590719E0,-5.659025669E0
1.838950192E1,1.750289917E1,2.769692183E0,-2.333002090E0
1.840896442E1,5.142116165E1,3.777070522E0,3.601796389E0
1.842842682E1,5.721897125E1,-6.005984545E-1,-9.989436150E0
1.844788932E1,3.190290642E1,-2.712862730E0,-8.518448830E0
1.846735182E1,1.737907028E1,-1.830509305E0,-3.212364435E0
1.848681422E1,1.656670761E1,-1.244866014E0,-1.711466432E0
1.850627672E1,1.402971745E1,-1.981257200E0,-2.548356056E0
1.852573922E1,1.138564873E1,-2.000399828E0,-3.903890133E0
1.854520161E1,8.476573944E0,-5.341976285E-1,-3.884149313E0
1.856466411E1,4.179064751E0,1.319641709E0,-2.977867842E0
1.858412651E1,-1.563709617E0,2.923431158E0,-4.660021961E-1
1.860358901E1,-6.852446079E0,3.736990690E0,1.088136077E0
1.862305151E1,-7.557730198E0,2.206780672E0,-7.046862841E-1
1.864251390E1,-5.370690346E0,-4.181457460E-1,-1.433898926E0
1.866197640E1,-4.271188259E0,-1.800599098E0,5.084748194E-2
1.868143880E1,-3.251846075E0,-2.137987137E0,1.775474429E0
1.870090130E1,-1.719243050E0,-2.015953064E0,1.881356835E0
1.872036370E1,-1.704886109E-1,-1.515853167E0,5.647061467E-1
1.873982620E1,1.331007600E0,-5.856433511E-1,-1.112064362E0
1.875928870E1,2.239681959E0,8.165507317E-1,-3.005983353E0
1.877875109E1,2.330609322E0,2.255833626E0,-3.446262836E0
1.879821359E1,2.517249346E0,3.486342669E0,-2.365305185E0
1.881767599E1,4.813162804E0,4.625326157E0,-1.191027522E0
1.883713849E1,8.247461319E0,5.793023586E0,3.044268608E0
1.885660099E1,1.646860123E1,5.958726406E0,4.295714855E0
1.887606338E1,3.764747620E1,3.474976778E0,1.602592945E0
1.889552588E1,5.668417358E1,-3.922434568E0,-7.774280548E0
1.891498838E1,3.641158295E1,-2.677568436E0,-6.214758396E0
1.893445088E1,2.544228554E1,2.495115757E0,6.125625968E-1
1.895391328E1,2.602733040E1,3.685544968E0,1.989033818E0
1.897337578E1,2.690190697E1,8.799605370E-1,-1.377069473E0
1.899283828E1,2.145105743E1,-1.152742267E0,-2.842673302E0
1.901230068E1,1.454058456E1,-7.429714203E-1,-1.619342685E0
1.903176318E1,7.104888439E0,3.690928817E-1,3.469592929E-1
1.905122568E1,2.973082066E-1,7.118647099E-1,1.482951880E0
1.907068807E1,-5.268995285E0,5.976074338E-1,1.006181955E0
1.909015057E1,-8.276773453E0,-2.895315289E-1,-2.028515339E0
1.910961307E1,-6.275177479E0,-1.355534077E0,-3.713062525E0
1.912907547E1,-5.039284706E0,-9.870393276E-1,-1.822134495E0
1.914853797E1,-4.243072987E0,9.810572863E-2,5.724828243E-1
1.916800047E1,-2.498106956E0,4.354937077E-1,1.243071318E0
1.918746286E1,-3.792623878E-1,9.032905847E-2,3.858426511E-1
1.920692536E1,1.143171072E0,-3.888336942E-2,-5.204389095E-1
1.922638786E1,1.797009826E0,3.750749528E-1,-6.233302951E-1
1.924585026E1,1.625324726E0,8.327022791E-1,-2.225325108E-1
1.926531276E1,7.274180651E-1,1.051047325E0,-3.888336718E-1
1.928477526E1,7.351947427E-1,1.090528965E0,-1.959721804E0
1.930423765E1,2.435295343E0,1.397408366E0,-3.726821184E0
1.932370015E1,5.902495384E0,1.739582062E0,-4.615156651E0
1.934316265E1,2.223410797E1,3.367299557E0,4.101896286E0
1.936262505E1,6.577450562E1,3.306880951E0,3.678964853E0
1.938208755E1,5.374578857E1,-5.373681545E0,-8.936594009E0
1.940155005E1,2.790270424E1,-6.443871498E0,-6.684350014E0
1.942101255E1,1.580279922E1,-4.243670940E0,-5.235496044E0
1.944047505E1,1.332203960E1,-3.266202807E-1,-1.730010748E0
1.945993745E1,1.134018517E1,1.833500385E0,-8.763712645E-1
1.947939995E1,8.784649849E0,2.699702263E0,-1.910070658E0
1.949886245E1,5.158327579E0,2.976671457E0,-2.120040894E0
1.951832495E1,1.322034448E-1,3.315854073E0,-1.785643935E0
1.953778734E1,-5.515456200E0,3.541377544E0,-1.182652593E0
1.955724984E1,-6.280561447E0,2.334796667E0,-1.729412556E0
1.957671234E1,-5.082953453E0,7.292127013E-1,-8.542376757E-1
1.959617474E1,-4.164707661E0,-1.005583763E0,8.847461939E-1
1.961563724E1,-3.148954630E0,-2.568695068E0,1.834098577E0
1.963509974E1,-1.919641972E0,-3.553341627E0,1.678565025E0
1.965456224E1,-3.768695593E-1,-3.336791277E0,1.119840980E0
1.967402463E1,1.093519926E0,-1.590628862E0,2.087737769E-1
1.969348713E1,1.642672777E0,1.086341500E0,-8.662018180E-1
1.971294963E1,1.295713425E0,3.232703447E0,-1.959721804E0
1.973241213E1,1.939382792E0,3.035893679E0,-2.822932482E0
1.975187453E1,3.700500250E0,7.579265833E-1,-2.618346214E0
1.977133703E1,5.209175110E0,-6.502495408E-1,-1.786840320E0
1.979079953E1,7.912466049E0,-7.962117195E-1,-5.922235921E-2
1.981026193E1,1.605883026E1,-2.188834429E0,-2.101496458E0
1.982972443E1,3.764149475E1,-2.311466694E0,-1.358525038E0
1.984918692E1,6.133043671E1,1.537388563E0,-1.498505235E0
1.986864942E1,4.157947922E1,2.023729801E0,-3.488137245E0
1.988811192E1,2.573181725E1,1.067797065E0,-2.085345030E0
1.990757442E1,2.339343071E1,-1.913659930E0,-3.774677813E-1
1.992703693E1,2.722015190E1,-3.221337557E0,8.255238086E-2
1.994649932E1,2.437030029E1,-7.734799385E-1,-1.500898004E0
1.996596182E1,1.525424480E1,1.806581140E0,-1.966900229E0
1.998542432E1,7.061219692E0,3.411566973E0,-1.181456208E0
2.000488682E1,4.851447940E-1,3.920639992E0,9.517452121E-1
2.002434932E1,-5.067399979E0,3.278765202E0,5.449653864E-1
2.004381172E1,-6.721438885E0,9.134600163E-1,-2.935395241E0
2.006327422E1,-5.845067501E0,-2.105684042E0,-3.719642878E0
2.008273672E1,-4.785645485E0,-2.901895761E0,-7.429714203E-1
2.010219922E1,-3.334398270E0,-1.828714728E0,1.397408366E0
2.012166172E1,-1.326221943E0,-1.123430252E0,2.102692842E0
2.014112411E1,3.499503136E-1,-9.607182741E-1,1.396810174E0
2.016058661E1,1.663011789E0,-6.885347366E-1,-9.511470050E-2
2.018004911E1,1.891526341E0,-1.890329868E-1,-1.309472203E0
2.019951161E1,1.353141189E0,7.070791125E-1,-1.725823283E0
2.021897411E1,6.640082598E-2,1.301695466E0,-1.426720500E0
2.023843651E1,-6.478567123E-1,8.823533654E-1,-1.261615753E0
2.025789901E1,-2.117647976E-1,5.533402562E-1,-1.939382792E0
2.027736151E1,1.549352646E0,1.130010486E0,-1.838884234E0
2.029682401E1,4.805386066E0,2.108076811E0,-1.110269666E0
2.031628651E1,1.749272919E1,3.458226919E0,5.560321808E0
2.033574901E1,6.142974091E1,3.718446493E0,3.068794966E0
2.035521151E1,5.869294739E1,-1.624726534E0,-9.720243454E0
2.037467401E1,3.243531036E1,-3.480958700E0,-5.503491879E0
2.039413651E1,2.235075760E1,-3.053241730E0,-1.096511006E0
2.041359901E1,1.780738640E1,-1.755135417E0,2.724228621E0
2.043306140E1,1.412722492E1,-1.396810174E0,8.356932998E-1
2.045252390E1,9.709476471E0,-5.850451589E-1,-2.296511650E0
2.047198640E1,5.127819061E0,-1.686939895E-1,-2.770888567E0
2.049144890E1,4.223332107E-1,5.282155871E-1,-2.456830740E0
2.051091140E1,-4.809573650E0,1.539183140E0,-1.642672777E0
2.053037390E1,-8.782855988E0,2.359921217E0,-2.303091764E0
2.054983640E1,-7.383652687E0,2.004587173E0,-2.441875458E0
2.056929890E1,-5.415555954E0,1.099501967E0,-7.423732281E-1
2.058876130E1,-4.235894203E0,5.982056633E-2,6.317051649E-1
2.060822380E1,-2.584846735E0,-6.939185858E-1,7.196413875E-1
2.062768630E1,-1.210170031E0,-9.696913958E-1,2.428714931E-1
2.064714880E1,5.724828243E-1,-9.140582681E-1,-1.393819153E-1
2.066661130E1,1.948355794E0,-5.766702294E-1,-8.949156404E-1
2.068607380E1,2.361716032E0,-1.597209126E-1,-2.203789711E0
2.070553630E1,2.249851465E0,5.617151260E-1,-3.254238844E0
2.072499880E1,2.443071842E0,1.634896040E0,-3.135195971E0
2.074446120E1,3.881158352E0,2.200798512E0,-2.346760750E0
2.076392370E1,7.442276478E0,2.478366137E0,-1.728814393E-1
2.078338620E1,1.282911873E1,2.729612350E0,2.374876499E0
2.080284870E1,2.832085037E1,2.667398930E0,3.162115097E0
2.082231120E1,5.755276871E1,1.597209126E-1,-3.212364435E0
2.084177370E1,5.027918625E1,-3.832105398E0,-9.443274498E0
2.086123620E1,2.853680229E1,-6.622136831E-1,-4.634299278E0
2.088069870E1,2.525265312E1,2.273181528E-1,-1.818545222E0
2.090016120E1,2.628156662E1,-1.679761529E0,3.320041299E-1
2.091962370E1,2.331446648E1,-3.652643681E0,-1.171884894E0
2.093908620E1,1.629093552E1,-2.846860647E0,-1.622333765E0
2.095854870E1,8.148757935E0,1.734796353E-2,-2.240878344E0
2.097801120E1,-1.860419661E-1,2.645863533E0,-6.077769399E-1
2.099747370E1,-8.003992081E0,4.337589264E0,2.844467878E0
2.101693620E1,-9.831509590E0,3.878765583E0,3.349951804E-1
2.103639870E1,-5.964708805E0,1.646860242E0,-2.174477577E0
2.105586120E1,-5.260022163E0,-7.112665176E-1,-1.888535261E0
2.107532370E1,-5.204987526E0,-2.115853310E0,-1.043868899E0
2.109478620E1,-3.564109325E0,-2.027318954E0,-4.295116663E-1
2.111424870E1,-6.101697683E-1,-1.375274777E0,2.225325108E-1
2.113371120E1,1.661217093E0,-9.619147182E-1,3.176472187E-1
2.115317370E1,2.755335331E0,-6.478567123E-1,-7.776673418E-3
2.117263620E1,3.308675528E0,2.482553422E-1,-4.654040039E-1
2.119209870E1,3.404986620E0,1.606182218E0,-5.431707501E-1
2.121156120E1,3.485146284E0,2.248056889E0,2.620140910E-1
2.123102370E1,5.009972572E0,2.390429735E0,1.005583763E0
2.125048620E1,1.108654594E1,3.357728481E0,5.571687698E0
2.126994870E1,4.443651199E1,5.413761139E0,6.175277233E0
2.128941120E1,6.684828949E1,-1.966302037E0,-8.425726891E0
2.130887370E1,3.669154358E1,-5.477170944E0,-9.558130264E0
2.132833620E1,1.981735802E1,-5.331807137E0,-6.931408882E0
2.134779870E1,1.184207916E1,-2.723630428E0,-2.804388046E0
2.136726120E1,8.641678810E0,-1.016949583E-2,-6.586244106E-1
2.138672370E1,7.774878979E0,2.467000246E0,-8.973085135E-2
2.140618630E1,5.673382282E0,4.074976921E0,8.614161611E-2
2.142564880E1,9.182456732E-1,4.256831646E0,-1.274178028E-1
2.144511130E1,-4.849653244E0,3.178864956E0,-6.640082598E-2
2.146457380E1,-7.490731239E0,1.043868899E0,-1.467398524E0
2.148403630E1,-5.870790482E0,-5.455635786E-1,-1.848455548E0
2.150349880E1,-4.777270317E0,-1.167697430E0,-5.724828243E-1
2.152296130E1,-3.363112211E0,-1.572682738E0,6.664010882E-1
2.154242380E1,-1.913061738E0,-1.449452281E0,9.708877802E-1
2.156188630E1,-4.336991012E-1,-1.057627559E0,9.571290612E-1
2.158134880E1,1.162911773E0,-5.365904570E-1,5.347958803E-1
2.160081130E1,2.197209358E0,9.092725813E-2,6.400800496E-2
2.162027380E1,2.328216314E0,4.073780477E-1,-1.752742529E-1
2.163973630E1,2.207977057E0,4.630111754E-1,-1.228714466E0
2.165919880E1,3.293122053E0,1.048056364E0,-2.612962246E0
2.167866130E1,5.525625706E0,2.039881229E0,-3.202194929E0
2.169812380E1,8.592626572E0,3.639483213E0,-4.809573591E-1
2.171758630E1,1.406560993E1,4.012763500E0,2.922832966E0
2.173704880E1,2.824906540E1,2.230110645E0,1.634297848E0
2.175651130E1,5.243452072E1,-2.130808592E0,-2.957528830E0
2.177597390E1,4.636093903E1,-3.717249870E0,-7.502097130E0
2.179543640E1,2.595315170E1,-6.885347366E-1,-2.648256540E0
2.181489890E1,2.212882423E1,1.950150430E-1,5.982056726E-3
2.183436140E1,2.808216667E1,-1.148554832E-1,1.357926875E-1
2.185382390E1,2.914637375E1,-1.914258115E-2,-2.132004976E0
2.187328640E1,1.990948105E1,9.828519225E-1,-2.794218540E0
2.189274890E1,9.940383911E0,1.599003673E0,-1.643270969E0
2.191221151E1,3.880560160E0,1.310668588E0,3.320041299E-1
2.193167401E1,-9.032905698E-1,1.039083242E0,8.141579032E-1
2.195113651E1,-5.053043365E0,8.596215248E-1,-3.547359705E-1
2.197059901E1,-6.473781586E0,-3.756731451E-1,-2.653042078E0
2.199006151E1,-5.282754421E0,-1.801795483E0,-1.718644857E0
2.200952401E1,-4.166502476E0,-1.624128342E0,9.278169870E-1
2.202898651E1,-2.347358942E0,-9.457631707E-1,2.228316069E0
2.204844901E1,-3.176472187E-1,-7.579265833E-1,1.402194023E0
2.206791151E1,1.122832060E0,-2.542374134E-1,2.572284341E-1
2.208737411E1,1.692921996E0,5.072783828E-1,-6.753742099E-1
2.210683661E1,1.350748420E0,1.012163997E0,-9.332008362E-1
2.212629911E1,6.699903607E-1,1.197607756E0,-9.924231768E-1
2.214576161E1,-1.196411345E-2,1.034297585E0,-1.148554921E0
2.216522411E1,-2.488535494E-1,3.948157430E-1,-1.701895118E0
2.218468661E1,3.792623878E-1,4.737788737E-1,-2.731407166E0
2.220414911E1,2.550150633E0,1.393819213E0,-4.441078663E0
2.222361172E1,8.468199730E0,2.467000246E0,-1.941177368E0
2.224307422E1,3.115514946E1,2.300698996E0,8.210970879E0
2.226253672E1,6.268357849E1,-1.418943882E0,-6.952346325E0
2.228199922E1,4.179902267E1,-1.260419369E0,-8.646464348E0
2.230146172E1,2.476631165E1,1.473978758E0,-4.953741074E0
2.232092432E1,1.964507484E1,2.565105915E0,1.136590764E-1
2.234038682E1,1.778884125E1,7.184450030E-1,9.571290575E-3
2.235984932E1,1.445444298E1,-1.934597135E0,-2.696711063E0
2.237931192E1,1.015214825E1,-1.800000787E0,-2.965305567E0
2.239877443E1,6.771687984E0,-8.285148144E-1,-2.663809776E0
2.241823693E1,2.955136061E0,2.590230405E-1,-1.892124534E0
2.243769942E1,-1.637288928E0,1.152742267E0,-2.327020019E-1
2.245716192E1,-6.136991978E0,1.765304923E0,1.116251707E0
2.247662442E1,-6.480361938E0,1.389631748E0,4.307080805E-1
2.249608703E1,-4.831109047E0,8.548358679E-1,-8.614161611E-2
2.251554953E1,-3.963112593E0,-5.443671346E-2,4.905286431E-2
2.253501203E1,-2.699702263E0,-9.511470199E-1,5.982056633E-2
2.255447453E1,-1.243669510E0,-1.214955688E0,-3.032902777E-1
2.257393703E1,5.144568533E-2,-1.101894855E0,-4.277170599E-1
2.259339963E1,1.261017561E0,-7.561319470E-1,-1.094716340E-1
2.261286213E1,1.845464468E0,-1.698904037E-1,-6.939185858E-1
2.263232463E1,2.067398787E0,4.492524564E-1,-1.990230203E0
2.265178713E1,2.526820660E0,1.143171072E0,-3.058625460E0
2.267124963E1,4.329214573E0,1.755733609E0,-3.293720484E0
2.269071224E1,7.518248558E0,2.525624275E0,-1.776072621E0
2.271017474E1,1.339801216E1,4.128217220E0,3.960121572E-1
2.272963724E1,3.371367645E1,6.560521603E0,6.497709751E0
2.274909984E1,5.938806152E1,9.367900491E-1,-2.854039192E0
2.276856234E1,4.083411789E1,-5.025525570E0,-8.292326927E0
2.278802484E1,2.644786835E1,-7.088736892E-1,-5.008177757E0
2.280748745E1,2.494218445E1,2.182852507E0,-1.262812138E0
2.282694995E1,2.691207695E1,3.220739365E0,-1.098903775E0
2.284641245E1,2.327139664E1,1.140778184E0,-3.650849104E0
2.286587505E1,1.662832260E1,4.468596280E-1,-3.069991350E0
2.288533755E1,9.235098839E0,1.335793257E0,-1.301097274E0
2.290480005E1,2.321038008E0,1.999801517E0,4.307080805E-2
2.292426255E1,-3.195614576E0,1.569093466E0,1.447657645E-1
2.294372515E1,-9.700503349E0,2.871387079E-2,-2.033899277E-1
2.296318765E1,-9.168100357E0,-1.981257200E0,-3.264408350E0
2.298265015E1,-6.766304016E0,-1.565504193E0,-2.257030010E0
2.300211265E1,-5.273182869E0,-1.848455518E-1,2.476571500E-1
2.302157526E1,-2.932404041E0,-9.870393574E-2,4.259224236E-1
2.304103776E1,-2.656033039E-1,-1.441675574E-1,2.213360965E-1
2.306050026E1,1.583450437E0,2.781656384E-1,3.972085714E-1
2.307996276E1,2.557927370E0,7.423732281E-1,2.937189937E-1
2.309942536E1,2.768495798E0,7.621139884E-1,-1.028913707E-1
2.311888786E1,2.256431818E0,-8.793623000E-2,-6.550351977E-1
2.313835036E1,1.962114573E0,-5.461617708E-1,-1.505085468E0
2.315781297E1,2.564507723E0,-7.178468257E-2,-1.322632670E0
2.317727547E1,7.761718273E0,4.737788737E-1,-1.052841991E-1
2.319673797E1,2.771068001E1,2.662015259E-1,6.489335060E0
2.321620057E1,6.657191467E1,1.352542996E0,-2.485544443E0
2.323566307E1,4.384189606E1,-7.716853023E-1,-7.364510059E0
2.325512568E1,2.117229271E1,-5.922235921E-2,-1.846660852E0
2.327458818E1,1.712363625E1,-1.003190875E0,5.144568533E-2
2.329405078E1,1.530628872E1,-5.826523304E-1,9.625129104E-1
2.331351328E1,1.264068413E1,-9.996016622E-1,-5.437689424E-1
2.333297578E1,8.143373489E0,-6.526423693E-1,-9.972088337E-1
2.335243838E1,3.559921980E0,-2.494517565E-1,-3.164508045E-1
2.337190088E1,-1.639681697E0,2.572284341E-1,1.214955688E0
2.339136338E1,-7.404589653E0,8.476574421E-1,8.739784956E-1
2.341082599E1,-7.726424217E0,1.040877819E0,-2.411366940E0
2.343028849E1,-6.470192432E0,1.479362607E0,-2.826521635E0
2.344975099E1,-5.542973518E0,1.238285661E0,-8.859425783E-1
2.346921359E1,-3.806980848E0,3.589234054E-1,5.808576941E-1
2.348867609E1,-1.558923960E0,-7.657032609E-1,7.639086246E-1
2.350813870E1,6.263213158E-1,-1.441675663E0,3.038884699E-1
2.352760120E1,2.670988321E0,-1.292722464E0,-4.941178858E-1
2.354706370E1,3.567698479E0,-5.096712112E-1,-1.593021631E0
2.356652630E1,3.796213150E0,4.235295951E-1,-2.587239504E0
2.358598880E1,3.796213150E0,1.064806104E0,-2.176870346E0
2.360545130E1,4.085744858E0,2.303689957E0,-1.488933921E0
2.362491390E1,7.348358154E0,3.772284985E0,-3.577269912E-1
2.364437640E1,1.152084255E1,3.075375319E0,1.895115495E0
2.366383901E1,2.100718880E1,1.088136077E0,7.058826685E-1
2.368330151E1,4.231946182E1,1.031306505E0,-4.957330227E0
2.370276401E1,4.733422089E1,2.027917147E0,-8.453244209E0
2.372222661E1,3.089911652E1,-3.505485058E-1,-5.033302307E0
2.374168911E1,2.498525620E1,-1.169492126E0,6.921239495E-1
2.376115172E1,2.652084923E1,-4.015156269E0,-1.238285750E-1
2.378061422E1,3.050729179E1,-4.246662140E0,-1.498505235E0
2.380007682E1,2.580060959E1,1.974078715E-1,-3.010769129E0
2.381953932E1,1.420379543E1,3.732205153E0,-2.371885538E0
2.383900192E1,6.506084919E0,3.952344894E0,-1.878365725E-1
2.385846442E1,2.096710920E0,2.264208317E0,1.534995675E0
2.387792703E1,-2.318645239E0,6.975077987E-1,9.972088337E-1
2.389738953E1,-6.343971252E0,-1.397408366E0,-1.566102386E0
2.391685213E1,-5.899504185E0,-2.709871531E0,-3.541377544E0
2.393631463E1,-4.292723656E0,-1.021137118E0,-1.326820135E0
2.395577713E1,-3.875774384E0,1.253839016E0,1.146760225E0
2.397523974E1,-2.916850805E0,1.923829436E0,2.012962103E0
2.399470224E1,-1.226919770E0,8.165507317E-1,1.481755376E0
2.401416484E1,6.197410822E-1,-5.551348329E-1,1.776670814E-1
2.403362734E1,1.794616938E0,-1.250249863E0,-1.077966571E0
2.405308995E1,1.978266120E0,-9.475577474E-1,-1.521835208E0
2.407255245E1,9.822536707E-1,-2.554338276E-1,-1.246062398E0
2.409201505E1,1.674975827E-2,1.483550072E-1,-1.008574724E0
2.411147755E1,7.310073376E-1,3.302095234E-1,-6.382854581E-1
2.413094015E1,2.504088879E0,-7.776673418E-3,-9.248259664E-1
2.415040265E1,7.965706348E0,-9.188438654E-1,-5.796613097E-1
2.416986526E1,2.652084923E1,-3.664607763E0,5.221737385E0
2.418932776E1,6.193821335E1,1.570289850E0,-4.296313286E0
2.420879036E1,4.440779877E1,3.553341627E0,-1.102552891E1
2.422825286E1,2.588435936E1,7.226324677E-1,-5.779264927E0
2.424771547E1,1.911925125E1,-2.276172638E0,-1.398006678E0
2.426717807E1,1.714816284E1,-2.196611166E0,2.113460541E0
2.428664057E1,1.547318745E1,-1.754537225E0,1.028913736E0
2.430610318E1,1.133181000E1,-8.560323119E-1,-1.843071699E0
2.432556568E1,7.025327206E0,-1.082752272E-1,-2.824128866E0
2.434502828E1,2.819343328E0,1.824527234E-1,-2.962912560E0
2.436449078E1,-1.138983607E0,3.702892959E-1,-2.806182861E0
2.438395338E1,-6.185446739E0,1.115055323E0,-1.059422255E0
2.440341588E1,-7.788637638E0,1.441675663E0,-7.196413875E-1
2.442287849E1,-5.630311489E0,1.037288666E0,-6.041877270E-1
2.444234099E1,-3.993022680E0,6.101697683E-2,3.708875179E-1
2.446180359E1,-2.897109985E0,-8.554341197E-1,1.190429211E0
2.448126609E1,-1.618146300E0,-1.384846091E0,9.397810698E-1
2.450072870E1,-4.761717021E-1,-1.538584948E0,3.104687333E-1
2.452019120E1,9.762716293E-1,-1.362114310E0,-3.050848842E-2
2.453965380E1,1.602592945E0,-8.805587292E-1,-8.793623447E-1
2.455911640E1,1.722832322E0,-3.888336942E-2,-2.609373093E0
2.457857890E1,2.466402054E0,1.358525038E0,-3.804588079E0
2.459804151E1,4.338187218E0,2.896511793E0,-3.550948858E0
2.461750401E1,7.398607731E0,4.564309120E0,-1.837089539E0
2.463696661E1,1.283151150E1,6.144170284E0,2.371287346E0
2.465642911E1,3.236292648E1,6.113661766E0,7.155138016E0
2.467589172E1,5.795416260E1,-2.034497499E0,-5.062016487E0
2.469535432E1,4.160161591E1,-7.670791149E0,-8.813364029E0
2.471481682E1,2.799901581E1,-1.444666624E0,-2.175075769E0
2.473427942E1,2.437149620E1,2.335993052E0,7.040880919E-1
2.475374203E1,2.397010040E1,1.539183140E0,1.573280841E-1
2.477320453E1,2.304108810E1,-1.353739381E0,-2.540579557E0
2.479266713E1,1.799223137E1,-1.281356573E0,-4.151547432E0
2.481212974E1,1.085503960E1,1.180259824E0,-2.655434847E0
2.483159224E1,3.488735437E0,3.309273720E0,-3.236292601E-1
2.485105484E1,-2.867797852E0,3.841676712E0,2.067996979E0
2.487051745E1,-8.806783676E0,2.786442041E0,2.215753794E0
2.488997995E1,-9.016754150E0,-6.191428304E-1,-1.527219057E0
2.490944255E1,-5.934200287E0,-2.935395241E0,-3.989433527E0
2.492890505E1,-4.518247128E0,-2.968894720E0,-2.592623234E0
2.494836765E1,-3.424129248E0,-1.691127419E0,-4.450650215E-1
2.496783026E1,-1.663609982E0,-5.461617708E-1,1.283151150E0
2.498729276E1,4.498506486E-1,1.950150430E-1,1.294517040E0
2.500675536E1,2.055434704E0,7.106683254E-1,3.930211067E-1
2.502621797E1,2.788236618E0,9.535398483E-1,-5.120640397E-1
2.504568047E1,2.729014158E0,5.778666735E-1,-1.414158225E0
2.506514307E1,2.582453728E0,8.973085321E-3,-2.498106956E0
2.508460557E1,2.696112871E0,6.759724021E-2,-2.657827854E0
2.510406818E1,4.170091629E0,7.830511928E-1,-2.091326952E0
2.512353078E1,1.390828133E1,2.184647083E0,1.929811478E0
2.514299338E1,4.172364807E1,4.079164505E0,5.584847927E0
2.516245588E1,6.039484406E1,-1.181456208E0,-1.139222908E1
2.518191849E1,3.353720474E1,-2.239681959E0,-5.948556900E0
2.520138109E1,2.107897377E1,1.044467092E0,-2.392822742E0
2.522084370E1,1.789412498E1,1.660020709E0,8.057830334E-1
2.524030620E1,1.657627869E1,-8.829515576E-1,-6.191428304E-1
2.525976880E1,1.352243900E1,-1.589432478E0,-3.233899832E0
2.527923140E1,9.533005714E0,-8.733802438E-1,-2.851048231E0
2.529869390E1,6.165107727E0,-6.275177598E-1,-1.719243050E0
2.531815651E1,2.238485575E0,-6.203392744E-1,-5.174478889E-1
2.533761911E1,-2.115255117E0,-4.779663086E-1,7.166503668E-1
2.535708172E1,-6.507281303E0,7.668996453E-1,1.156929731E0
2.537654422E1,-6.385247231E0,2.701496840E0,-2.596212626E-1
2.539600682E1,-4.499104977E0,3.778865099E0,-6.616154313E-1
2.541546942E1,-3.533002615E0,2.874976397E0,2.177468538E-1
2.543493192E1,-2.088335991E0,1.015154958E0,6.287141442E-1
2.545439453E1,-4.857429862E-1,-6.245267391E-1,4.121637046E-1
2.547385713E1,9.014959335E-1,-1.487737536E0,-3.337987661E-1
2.549331963E1,1.752742529E0,-1.345364571E0,-1.465005636E0
2.551278224E1,1.803590059E0,-5.306084156E-1,-2.619542599E0
2.553224484E1,1.765304923E0,3.236292601E-1,-2.904886723E0
2.555170745E1,2.120040894E0,1.222134113E0,-2.682354212E0
2.557116995E1,3.407977581E0,2.027318954E0,-2.427518606E0
2.559063255E1,6.327221394E0,2.853441000E0,1.399801224E-1
2.561009515E1,1.146820068E1,2.871387243E0,2.182852507E0
2.562955776E1,2.428296280E1,1.971685886E0,-1.465603858E-1
2.564902026E1,4.983651352E1,-5.198407173E-1,-2.235494614E0
2.566848286E1,5.110291672E1,-4.873581409E0,-6.266802311E0
2.568794547E1,2.620499802E1,-2.061416626E0,-3.768695593E0
2.570740807E1,2.117348862E1,1.387238979E0,-7.172485590E-1
2.572687068E1,2.774597549E1,2.952144861E0,3.074777126E-1
2.574633328E1,2.922832870E1,1.514656782E0,-1.055234790E0
2.576579578E1,2.202712822E1,-1.048056364E0,-1.838286042E0
2.578525838E1,1.346620750E1,-1.779063582E0,-5.778666735E-1
2.580472099E1,6.693323135E0,-1.677368641E0,6.580262184E-1
2.582418359E1,1.910070658E0,-7.764709592E-1,6.442674994E-1
2.584364620E1,-3.617349625E0,5.318048596E-1,3.661018610E-1
2.586310870E1,-7.701898098E0,1.441675663E0,-1.731207132E0
2.588257130E1,-6.800402164E0,2.042274237E0,-1.819143414E0
2.590203390E1,-4.647459984E0,1.719243050E0,-2.883351147E-1
2.592149651E1,-3.166302681E0,7.495517135E-1,1.537388563E-1
2.594095901E1,-1.827518344E0,-6.502495408E-1,4.845465720E-2
2.596042161E1,-1.974078715E-1,-1.718644857E0,5.204389095E-1
2.597988422E1,1.627119422E0,-1.855035782E0,2.470589429E-1
2.599934682E1,2.785843849E0,-9.104689956E-1,-2.877369225E-1
2.601880942E1,2.485544443E0,4.851447940E-1,-5.952146053E-1
2.603827192E1,1.378864050E0,1.605584025E0,-8.261220455E-1
2.605773453E1,4.103690982E-1,1.584048629E0,-1.808973908E0
2.607719713E1,1.415354609E0,1.381256819E0,-3.278167009E0
2.609665974E1,3.867997885E0,1.578066587E0,-3.340978622E0
2.611612234E1,1.068215847E1,1.689931035E0,8.003991842E-1
2.613558495E1,4.016412735E1,-4.983053207E-1,7.820940971E0
2.615504755E1,6.473063660E1,-5.461617708E-1,-6.367899418E0
2.617451005E1,3.507339478E1,-2.632105052E-1,-6.673582554E0
2.619397265E1,2.139362907E1,1.950150490E0,-3.634099483E0
2.621343526E1,1.685564041E1,2.070987940E0,1.836491376E-1
2.623289786E1,1.468116379E1,7.932206988E-1,-7.357929647E-2
2.625236047E1,1.169312572E1,-1.077368379E0,-1.512263894E0
2.627182307E1,8.354539871E0,-1.591227055E0,-1.667199135E0
2.629128568E1,4.040280819E0,-1.222732425E0,-1.008574724E0
2.631074828E1,-8.967102766E-1,-9.391828775E-1,-8.434699476E-2
2.633021088E1,-6.315257072E0,-8.500502706E-1,1.704886109E-1
2.634967338E1,-8.469395638E0,-1.944168359E-1,-1.083350420E0
2.636913599E1,-6.613761902E0,1.232303619E0,-9.547362328E-1
2.638859859E1,-5.210969448E0,2.211566210E0,1.968096644E-1
2.640806120E1,-3.169891834E0,1.841875196E0,6.843472719E-1
2.642752380E1,-1.377069473E0,8.775677085E-1,-1.549352705E-1
2.644698640E1,-9.272187948E-2,2.632105052E-1,-1.073779106E0
2.646644901E1,1.339980721E0,1.441675574E-1,-1.599601984E0
2.648591151E1,2.412563324E0,3.948157430E-1,-2.860619545E0
2.650537411E1,3.061616659E0,1.113858938E0,-3.693321705E0
2.652483672E1,3.738187075E0,1.966900229E0,-2.913261652E0
2.654429932E1,6.418746948E0,2.775076151E0,-2.568695068E0
2.656376192E1,9.672985077E0,3.423531055E0,5.066801906E-1
2.658322453E1,1.858385658E1,2.395813704E0,2.334198475E0
2.660268713E1,4.200480652E1,8.572286963E-1,8.829515576E-1
2.662214974E1,5.475376511E1,-1.698305845E0,-6.099903107E0
2.664161234E1,3.379802322E1,-1.905883193E0,-7.884948730E0
2.666107495E1,2.294956207E1,3.181257725E0,-3.490530014E0
2.668053755E1,2.294417763E1,3.649652719E0,-1.663011789E0
2.670000015E1,2.442832565E1,9.912267923E-1,-2.381456852E0
2.671946276E1,2.214856529E1,-2.643470764E0,-4.008575916E0
2.673892536E1,1.605344772E1,-2.955136061E0,-3.171686411E0
2.675838797E1,8.474779129E0,-8.781659007E-1,-1.183250785E0
2.677785057E1,1.105484009E0,7.531409264E-1,9.511470199E-1
2.679731318E1,-6.251847267E0,2.013560295E0,2.893520832E0
2.681677578E1,-1.074736309E1,1.858624935E0,2.787638307E-1
2.683623828E1,-6.946962357E0,2.847459018E-1,-3.252444267E0
2.685570088E1,-6.228517532E0,-3.702892959E-1,-3.453441381E0
2.687516349E1,-5.804987907E0,-3.553341627E-1,-2.382055044E0
2.689462609E1,-3.809373617E0,-4.157529473E-1,-1.286142230E0
2.691408870E1,-1.094118118E0,-7.758727670E-1,-7.716853172E-2
2.693355130E1,1.567897081E0,-9.601200819E-1,1.142572761E0
2.695301390E1,3.224926710E0,-7.633104324E-1,1.590030670E0
2.697247651E1,3.359523058E0,-4.821537733E-1,1.538584948E0
2.699193911E1,2.507678032E0,-2.003988922E-1,-4.426721856E-2
2.701140172E1,1.999203324E0,2.799602449E-1,-1.606780410E0
2.703086432E1,3.691527128E0,1.320239902E0,-2.764308453E0
2.705032692E1,1.048295593E1,2.965903759E0,-8.662018180E-1
2.706978953E1,3.915375519E1,4.159922123E0,6.160920143E0
2.708925213E1,6.790412140E1,-6.837490797E-1,-7.630711555E0
2.710871474E1,3.788795471E1,-4.601995945E0,-7.240083218E0
2.712817745E1,2.370689011E1,-4.596014023E0,-1.741974831E0
2.714764005E1,1.793779564E1,-2.432304144E0,2.422134638E0
2.716710265E1,1.523390579E1,-4.384847581E-1,2.792423964E0
2.718656526E1,1.185643578E1,4.857429862E-1,-1.004985496E-1
2.720602786E1,7.941180229E0,8.512466550E-1,-2.281556368E0
2.722549047E1,3.242274761E0,5.976074338E-1,-2.877967358E0
2.724495307E1,-1.534397483E0,3.601198196E-1,-2.328814745E0
2.726441568E1,-6.394220352E0,3.816552162E-1,-1.694716692E0
2.728387828E1,-8.617152214E0,1.141974568E0,-2.444268227E0
2.730334088E1,-6.947560310E0,2.184048891E0,-2.210369825E0
2.732280349E1,-5.574678421E0,1.837089539E0,-1.097707391E0
2.734226609E1,-3.664607763E0,6.783652306E-1,-1.513460279E-1
2.736172870E1,-1.295713425E0,-2.584248483E-1,3.631108403E-1
2.738119130E1,4.683950245E-1,-7.794619799E-1,5.407779217E-1
2.740065390E1,1.670190215E0,-9.158528447E-1,7.716853172E-2
2.742011651E1,2.199602127E0,-7.004988194E-1,-4.660021961E-1
2.743957911E1,2.333002090E0,-5.377869010E-1,-1.414158225E0
2.745904172E1,2.240878344E0,-1.573280841E-1,-2.599203587E0
2.747850432E1,2.711068153E0,1.298704505E0,-3.911666870E0
2.749796692E1,5.039284706E0,3.047259569E0,-4.357928276E0
2.751742953E1,9.757930756E0,4.613960266E0,-2.568695068E0
2.753689213E1,1.746461487E1,5.075176716E0,1.558923960E0
2.755635484E1,3.475455093E1,3.108276606E0,1.984846354E0
2.757581745E1,6.021538162E1,-1.023529887E0,-8.578866959E0
2.759528005E1,3.791547012E1,-3.352942705E0,-8.942576408E0
2.761474265E1,2.093181419E1,-5.569294691E-1,-2.955734253E0
2.763420526E1,1.929990959E1,1.085743308E0,-1.190429255E-1
2.765366786E1,2.605903435E1,-3.475574851E-1,9.200403094E-1
2.767313047E1,2.765624428E1,-2.014756680E0,-1.797608018E0
2.769259318E1,2.149711800E1,-1.869990945E0,-4.066602230E0
2.771205578E1,1.201496029E1,-3.290131092E-1,-3.789632797E0
2.773151838E1,4.234697819E0,1.281954765E0,-1.332203984E0
2.775098099E1,-1.901695848E0,2.597409010E0,1.684547186E0
2.777044359E1,-6.976274490E0,2.988037348E0,1.545763373E0
2.778990620E1,-6.234499454E0,1.085743308E0,-1.652842283E0
2.780936880E1,-4.610969067E0,-1.306481123E0,-2.068595171E0
2.782883140E1,-3.880560160E0,-1.905883193E0,-6.550351977E-1
2.784829401E1,-2.888735056E0,-1.354337573E0,9.266205430E-1
2.786775672E1,-1.226919770E0,-9.080761671E-1,1.673181176E0
2.788721932E1,7.004988194E-1,-3.888336718E-1,1.140179992E0
2.790668192E1,2.167897224E0,3.224328458E-1,3.828516230E-2
2.792614453E1,2.157129526E0,9.140582681E-1,-9.888339639E-1
2.794560713E1,1.025922656E0,9.625129104E-1,-1.576271892E0
2.796506974E1,-8.494520187E-2,6.987041831E-1,-1.932802439E0
2.798453234E1,2.063809484E-1,5.928218365E-1,-2.157727718E0
2.800399505E1,1.800000787E0,4.917250574E-1,-3.336791277E0
2.802345765E1,4.763511658E0,8.554341197E-1,-5.059623718E0
2.804292026E1,1.219741344E1,2.361117840E0,-8.117650747E-1
2.806238286E1,4.786423111E1,2.809772015E0,5.751149178E0
2.808184547E1,6.449076080E1,-1.560718536E0,-9.349954605E0
2.810130818E1,3.097030258E1,-8.392825127E-1,-6.808776855E0
2.812077078E1,1.933580208E1,-3.529413417E-2,-4.283750534E0
2.814023338E1,1.623410606E1,1.472782373E0,5.072783828E-1
2.815969609E1,1.551147270E1,2.157727718E0,8.063812256E-1
2.817915870E1,1.181575775E1,9.332008362E-1,-9.266205430E-1
2.819862130E1,8.111668587E0,6.460621208E-2,-1.046859860E0
2.821808390E1,3.567100286E0,-3.888336718E-1,-6.089733839E-1
2.823754651E1,-1.626521230E0,-4.600201547E-1,-2.673979402E-1
2.825700922E1,-7.060621262E0,-1.890329868E-1,-2.955136001E-1
2.827647182E1,-7.052246571E0,3.469592929E-1,-2.462214470E0
2.829593443E1,-5.172684193E0,1.689931035E0,-2.309672117E0
2.831539703E1,-5.132604599E0,2.090130568E0,-1.166501045E-1
2.833485963E1,-3.459423304E0,1.536790371E0,8.997012973E-1
2.835432234E1,-1.417149186E0,2.739782035E-1,2.763710022E-1
2.837378495E1,2.093719840E-1,-7.615157962E-1,-9.661021233E-1
2.839324755E1,1.375274777E0,-1.429113269E0,-1.856830359E0
2.841271015E1,1.911865234E0,-1.543968797E0,-2.175673962E0
2.843217276E1,2.407777786E0,-5.210371017E-1,-1.107876897E0
2.845163547E1,2.579462767E0,1.216152072E0,-8.793623000E-2
2.847109807E1,3.577269793E0,2.194218397E0,3.774677813E-1
2.849056068E1,6.821339130E0,5.569294691E-1,-1.162911773E0
2.851002328E1,1.324367523E1,-1.357328653E0,-1.062413216E0
2.852948599E1,2.963451004E1,-1.545763373E0,1.141376376E0
2.854894859E1,5.412145996E1,2.751745939E0,-4.814359188E0
2.856841120E1,4.352185440E1,3.710071564E0,-5.929414749E0
2.858787390E1,2.727219582E1,3.929014683E0,1.922633052E0
2.860733651E1,2.372663116E1,1.813161373E0,5.924628735E0
2.862679922E1,2.664886665E1,-9.445667267E-1,1.390828133E0
2.864626182E1,2.460958290E1,-1.734796405E0,-2.905484915E0
2.866572442E1,1.771346855E1,-6.340979934E-1,-3.179463148E0
2.868518713E1,1.047278690E1,1.303490162E0,-2.080559254E0
2.870464974E1,4.320241451E0,1.998605132E0,-2.186441660E0
2.872411234E1,-2.757728100E-1,1.432104349E0,-2.405983210E0
2.874357495E1,-5.367101192E0,1.003789067E0,-1.649851203E0
2.876303765E1,-9.327222824E0,1.884347796E-1,-2.254039049E0
2.878250026E1,-7.421937466E0,9.990034252E-2,-1.957328916E0
2.880196286E1,-4.858626366E0,6.897311211E-1,-1.878365725E-1
2.882142557E1,-3.546761274E0,5.443671346E-1,6.568298340E-1
2.884088818E1,-1.935195327E0,-6.000002623E-1,1.069591761E0
2.886035078E1,-2.949153781E-1,-1.521835208E0,1.097109199E0
2.887981338E1,1.453639746E0,-1.518844128E0,1.120439172E0
2.889927609E1,3.013760090E0,-6.239284873E-1,1.185045362E0
2.891873870E1,3.428914785E0,6.580262631E-2,5.144568533E-2
2.893820130E1,2.708076954E0,6.981059909E-1,-1.298704505E0
2.895766401E1,4.466203690E0,9.355936646E-1,-2.116451740E0
2.897712661E1,8.624331474E0,1.782652855E0,-4.435695171E0
2.899658922E1,2.777169800E1,2.361117840E0,2.346760750E0
2.901605193E1,6.248856354E1,1.861017823E0,-3.507878065E0
2.903551453E1,4.599184418E1,-5.451447964E0,-5.525625706E0
2.905497724E1,2.514198494E1,-3.031108141E0,-3.020938635E0
2.907443984E1,1.737847328E1,-1.232303619E0,-2.191227436E0
2.909390255E1,1.366421413E1,9.110672474E-1,3.613162339E-1
2.911336515E1,1.176670551E1,7.830511928E-1,-8.147560954E-1
2.913282776E1,1.025444126E1,-1.692921966E-1,-2.494517565E0
2.915229047E1,7.676175117E0,-5.168496966E-1,-2.978466034E0
2.917175307E1,3.538984776E0,-3.008974493E-1,-2.691925526E0
2.919121568E1,-2.084148407E0,4.785645381E-2,-2.118844509E0
2.921067838E1,-8.324031830E0,5.437689424E-1,-1.098305583E0
2.923014099E1,-8.927022934E0,7.603194118E-1,-1.214357495E0
2.924960370E1,-5.213362217E0,1.485942841E0,4.247260094E-2
2.926906630E1,-3.929014683E0,1.803590059E0,1.318445325E0
2.928852890E1,-2.340778828E0,1.225125194E0,1.372882009E0
2.930799161E1,-6.897311211E-1,3.720839322E-1,9.906286001E-1
2.932745422E1,9.535398483E-1,-3.008974493E-1,6.777670383E-1
2.934691682E1,2.399402857E0,-8.141579032E-1,1.525424421E-1
2.936637953E1,2.787638426E0,-1.400997639E0,-6.849454641E-1
2.938584213E1,2.730210543E0,-1.186840057E0,-1.933998942E0
2.940530474E1,2.350948334E0,4.019941986E-1,-3.187838078E0
2.942476745E1,2.602194548E0,1.796411633E0,-4.483551502E0
2.944423005E1,4.770092010E0,3.731008768E0,-3.955335855E0
2.946369276E1,8.754739761E0,6.390631199E0,5.653043389E-1
2.948315536E1,1.785225105E1,6.691528320E0,1.099501967E0
2.950261807E1,4.444069672E1,2.487339020E0,-7.806583643E-1
2.952208068E1,6.512425995E1,-4.666004181E0,-1.105543900E1
2.954154338E1,4.031666946E1,-4.892126083E0,-9.179466248E0
2.956100599E1,2.396830559E1,3.107678413E0,-1.548156261E0
2.958046870E1,2.423271370E1,4.591228485E0,1.361516118E0
2.959993130E1,2.470290184E1,-6.795616150E-1,-2.296511650E0
2.961939401E1,1.970848465E1,-2.577069998E0,-5.145166874E0
2.963885661E1,1.195514011E1,-1.480558991E0,-4.816154003E0
2.965831922E1,3.280559778E0,5.383851007E-3,-1.526620865E0
2.967778192E1,-4.980660439E0,7.782655358E-1,3.464807272E0
2.969724453E1,-1.014676476E1,2.195414752E-1,3.531806231E0
2.971670724E1,-6.729215622E0,-9.505487680E-1,-7.112665176E-1
2.973616984E1,-3.421138287E0,-1.031904817E0,-1.198205948E0
2.975563255E1,-2.462214470E0,-4.749752879E-1,-6.640082598E-1
2.977509515E1,-1.583450437E0,-8.913264424E-2,8.434699476E-2
2.979455786E1,-3.170489892E-2,1.980060786E-1,6.089733839E-1
2.981402047E1,1.658824325E0,2.279163599E-1,3.816552162E-1
2.983348318E1,2.738585472E0,3.385843933E-1,-8.434699476E-2
2.985294578E1,2.970091105E0,7.082754970E-1,-6.041877344E-2
2.987240838E1,1.950150490E0,1.141974568E0,-3.170489967E-1
2.989187109E1,8.877372146E-1,1.360319614E0,-1.365105271E0
2.991133370E1,1.118046403E0,1.298704505E0,-1.642672777E0
2.993079640E1,2.028515339E0,1.130608678E0,-1.983649969E0
2.995025901E1,4.350749969E0,9.690931439E-1,-3.262015581E0
2.996972172E1,9.388239861E0,9.427721500E-1,-2.578864574E0
2.998918432E1,2.306082916E1,-4.109672904E-1,1.135992527E0
3.000864703E1,3.876851273E1,-1.020538807E0,-6.538388133E-1
3.002810974E1,3.507878113E1,-1.252642632E0,-2.687737942E0
3.004757234E1,2.259841537E1,5.533402562E-1,-3.051447153E0
3.006703505E1,1.545225048E1,9.469595551E-1,-9.882357717E-1
3.008649765E1,1.361695576E1,-4.588237405E-1,1.655235052E0
3.010596036E1,1.352064419E1,-1.721037745E0,-8.961120844E-1
3.012542307E1,1.306182098E1,-1.465603828E0,-9.302098155E-1
3.014488568E1,8.370093346E0,1.998006850E-1,1.339980721E0
3.016434838E1,3.808775425E0,1.443470240E0,2.449652195E0
3.018381099E1,1.578664780E0,1.052243710E0,1.208973646E0
3.020327370E1,1.257428288E0,1.375873014E-2,-7.621139884E-1
3.022273630E1,1.989632010E0,-5.599204898E-1,-1.955534339E0
3.024219901E1,3.104089260E0,-4.516452849E-1,-1.942971945E0
3.026166161E1,5.246263504E0,2.464607358E-1,-1.622931957E0
3.028112432E1,8.246863365E0,1.003789067E0,-1.322034478E0
3.030058692E1,1.186301613E1,1.806581140E0,-1.254437327E0
3.032004963E1,1.621556091E1,2.309672117E0,-1.736590981E0
3.033951234E1,1.818126488E1,1.624726534E0,-2.449054003E0
3.035897495E1,1.530329704E1,3.774677813E-1,-2.018345833E0
3.037843765E1,1.141615677E1,-4.666004330E-2,-6.693921089E-1
3.039790026E1,8.557929993E0,-9.332008660E-2,4.253242314E-1
3.041736297E1,7.034898758E0,-4.127619043E-2,9.032905698E-1
3.043682557E1,6.455835342E0,1.956132501E-1,9.511470199E-1
3.045628828E1,6.677769661E0,5.012963414E-1,5.653043389E-1
3.047575099E1,7.752745152E0,6.227321029E-1,1.076770201E-1
3.049521359E1,9.306883812E0,5.688936114E-1,-1.872383654E-1
3.051467630E1,1.070309544E1,4.432703853E-1,-5.012963414E-1
3.053413890E1,1.170748329E1,3.888336718E-1,-8.458628058E-1
3.055360161E1,1.201077366E1,5.012963414E-1,-9.337990284E-1
3.057306432E1,1.149930763E1,6.053841114E-1,-8.422735929E-1
3.059252692E1,1.061396313E1,6.005984545E-1,-5.264210105E-1
3.061198963E1,9.845867157E0,5.682953596E-1,-4.666004330E-2
3.063145234E1,9.222537041E0,5.030909777E-1,2.739782035E-1
3.065091495E1,8.833703041E0,3.750749528E-1,3.894318938E-1
3.067037765E1,8.751749039E0,2.763710022E-1,3.092723191E-1
3.068984026E1,9.119645119E0,2.374876440E-1,8.973085321E-3
3.070930297E1,9.735796928E0,2.901297510E-1,-2.530409992E-1
3.072876568E1,1.021436119E1,4.319044948E-1,-4.229314029E-1
3.074822828E1,1.039143085E1,5.156532526E-1,-5.461617708E-1
3.076769099E1,1.029571724E1,5.246263742E-1,-6.239284873E-1
3.078715370E1,1.013898754E1,5.276173949E-1,-5.952146053E-1
3.080661630E1,9.897911072E0,5.533402562E-1,-5.569294691E-1
3.082607901E1,9.634700775E0,5.090730190E-1,-5.156532526E-1
3.084554161E1,9.498309135E0,3.535395563E-1,-4.462614357E-1
3.086500432E1,9.531808853E0,2.530409992E-1,-3.936193287E-1
3.088446703E1,9.760921478E0,1.920240223E-1,-2.368894368E-1
3.090392963E1,1.002652550E1,4.905286431E-2,-1.328016520E-1
3.092339234E1,1.010728264E1,1.435693540E-2,-2.135594189E-1
3.094285505E1,1.013121128E1,-4.426721856E-2,-2.638086975E-1
3.096231765E1,1.009053326E1,-1.046859920E-1,-2.596212626E-1
3.098178036E1,1.001575756E1,-1.417747438E-1,-3.756731451E-1
3.100124307E1,9.905089378E0,-8.434699476E-2,-2.865405083E-1
3.102070568E1,9.762118340E0,7.597211748E-2,-8.793623000E-2
3.104016838E1,9.751948357E0,1.980060786E-1,5.862415582E-2
3.105963109E1,9.735198975E0,1.680957973E-1,8.853443712E-2
3.107909370E1,9.701101303E0,8.015955985E-2,-7.238288224E-2
3.109855640E1,9.725627899E0,1.615155302E-2,-2.560320199E-1
3.111801911E1,9.771091461E0,1.375873014E-2,-2.428714931E-1
3.113748172E1,9.811170578E0,1.196411345E-2,-6.999006122E-2
3.115694443E1,9.900901794E0,-3.589233849E-3,1.184447184E-1
3.117640713E1,9.910472870E0,-6.161518395E-2,1.076770201E-1
3.119586984E1,9.863214493E0,-1.262213886E-1,-1.441675574E-1
3.121533245E1,9.796813965E0,-9.571290761E-2,-2.344966233E-1
3.123479515E1,9.781260490E0,-3.589233849E-3,-1.142572835E-1
3.125425786E1,9.818349838E0,1.124626622E-1,-9.571290575E-3
3.127372047E1,9.810572624E0,2.530409992E-1,1.555334684E-2
3.129318318E1,9.780064583E0,2.799602449E-1,-8.733802289E-2
3.131264588E1,9.846465111E0,1.920240223E-1,-2.309073806E-1
3.133210849E1,9.861420631E0,5.563312769E-2,-3.433700502E-1
3.135157120E1,9.939187050E0,-2.572284266E-2,-4.366901219E-1
3.137103390E1,1.002473068E1,3.469592705E-2,-3.978067636E-1
3.139049661E1,9.936196327E0,1.393819153E-1,-3.248256743E-1
3.140995922E1,9.781859398E0,2.374876440E-1,-2.937189937E-1
3.142942193E1,9.774082184E0,2.991028428E-1,-3.463610709E-1
3.144888463E1,9.866804123E0,3.140579760E-1,-4.025924206E-1
3.146834724E1,9.990034103E0,2.620140910E-1,-4.366901219E-1
3.148780995E1,1.009711361E1,1.992024779E-1,-4.079762697E-1
3.150727265E1,1.010130119E1,1.399801224E-1,-3.236292601E-1
3.152673536E1,1.004267693E1,1.058823988E-1,-2.721835673E-1
3.154619797E1,9.937392235E0,6.699903309E-2,-2.291127741E-1
3.156566068E1,9.808179855E0,9.631111473E-2,-1.950150430E-1
3.158512338E1,9.711869240E0,1.561316848E-1,-2.261217386E-1
3.160458609E1,9.725627899E0,2.494517565E-1,-3.266202807E-1
3.162404870E1,9.829116821E0,2.877369225E-1,-4.055834413E-1
3.164351140E1,9.927223206E0,3.050848842E-1,-4.737788737E-1
3.166297411E1,9.948160172E0,2.829512656E-1,-5.491527915E-1
3.168243682E1,9.857233047E0,2.123630047E-1,-5.090730190E-1
3.170189942E1,9.737591743E0,1.310070455E-1,-4.253242314E-1
3.172136213E1,9.758528709E0,1.268195957E-1,-4.115654826E-1
3.174082484E1,9.826724052E0,2.009970993E-1,-4.163511395E-1
3.176028755E1,9.815358162E0,2.021935135E-1,-4.468596280E-1
3.177975015E1,9.806983948E0,2.123630047E-1,-4.660021961E-1
3.179921286E1,9.926026344E0,1.824527234E-1,-4.067798555E-1
3.181867557E1,9.948758125E0,1.345962733E-1,-1.537388563E-1
3.183813828E1,9.871589661E0,5.982056726E-3,1.112662554E-1
3.185760099E1,9.868000984E0,-7.178467698E-3,4.187439755E-2
3.187706359E1,9.956535339E0,1.495514158E-2,-1.609173268E-1
3.189652630E1,1.001874828E1,8.075776696E-2,-4.719842672E-1
3.191598901E1,1.002772141E1,1.298106313E-1,-6.424728632E-1
3.193545172E1,1.004447079E1,2.045863420E-1,-5.036891699E-1
3.195491432E1,1.001037312E1,2.763710022E-1,-3.230310678E-1
3.197437703E1,9.930811882E0,3.403790295E-1,-1.471585929E-1
3.199383974E1,9.875179291E0,3.702892959E-1,-1.076770201E-2
3.201330245E1,9.838688850E0,3.433700502E-1,4.187439755E-2
3.203276515E1,9.882357597E0,2.805584669E-1,1.124626622E-1
3.205222776E1,9.965508461E0,1.298106313E-1,2.614158690E-1
3.207169047E1,9.917651176E0,-1.148554832E-1,4.815555513E-1
3.209115318E1,9.911669731E0,-2.823530734E-1,6.251249313E-1
3.211061588E1,9.937990189E0,-2.913261652E-1,7.238288522E-1
3.213007859E1,9.908080101E0,-2.171486616E-1,7.680960894E-1
3.214954130E1,9.845269203E0,-1.609173268E-1,7.375875711E-1
3.216900390E1,9.745368004E0,-1.339980662E-1,6.777670383E-1
3.218846661E1,9.725028992E0,-1.064806059E-1,6.358926296E-1
3.220792932E1,9.737591743E0,-6.161518395E-2,6.119644046E-1
3.222739203E1,9.709476471E0,-2.033899166E-2,6.604190469E-1
3.224685474E1,9.730413437E0,-3.828516230E-2,7.657032609E-1
3.226631734E1,9.768099785E0,-6.340979785E-2,9.589236975E-1
3.228578005E1,9.767501831E0,-3.529413417E-2,9.996016622E-1
3.230524276E1,9.735198975E0,4.845465720E-2,8.021938205E-1
3.232470547E1,9.738788605E0,1.926222295E-1,5.419743061E-1
3.234416818E1,9.757930756E0,2.715853751E-1,4.145565331E-1
3.236363088E1,9.842875481E0,3.427718580E-1,4.761717021E-1
3.238309349E1,9.845269203E0,3.936193287E-1,7.262216806E-1
3.240255620E1,9.672985077E0,4.097708762E-1,8.817551732E-1
3.242201890E1,9.546165466E0,3.780659735E-1,8.662018180E-1
3.244148161E1,9.642477036E0,4.037888348E-1,7.597211599E-1
3.246094432E1,9.786644936E0,4.666004181E-1,6.089733839E-1
3.248040703E1,9.882955551E0,4.013960063E-1,5.000999570E-1
3.249986974E1,9.808777809E0,2.709871531E-1,6.346961856E-1
3.251933234E1,9.714859962E0,6.340979785E-2,9.230313301E-1
3.253879505E1,9.754940033E0,-1.908276081E-1,1.098305583E0
3.255825776E1,9.833304405E0,-3.553341627E-1,1.068395257E0
3.257772047E1,1.000379372E1,-5.000999570E-1,7.824530005E-1
3.259718318E1,1.007019424E1,-5.611169338E-1,4.785645306E-1
3.261664588E1,1.001037312E1,-2.572284341E-1,3.403790295E-1
3.263610859E1,9.936794281E0,2.476571500E-1,3.391826153E-1
3.265557120E1,9.923035622E0,6.538388133E-1,3.864408433E-1
3.267503390E1,9.990633011E0,6.951149702E-1,4.851447940E-1
3.269449661E1,9.971489906E0,4.354937077E-1,6.568298340E-1
3.271395932E1,9.723833084E0,1.429711580E-1,9.577272534E-1
3.273342203E1,9.507282257E0,5.982056609E-4,1.076770186E0
3.275288474E1,9.418149948E0,2.093719840E-1,9.385846853E-1
3.277234745E1,9.428318977E0,4.779663086E-1,7.848458290E-1
3.279181015E1,9.562915802E0,5.114658475E-1,7.597211599E-1
3.281127276E1,9.796216011E0,4.737788737E-1,8.709874153E-1
3.283073547E1,1.001396275E1,3.882354796E-1,8.608179688E-1
3.285019818E1,1.007198906E1,2.907279432E-1,5.736792088E-1
3.286966088E1,1.008275604E1,1.716850251E-1,3.302095234E-1
3.288912359E1,9.997213364E0,-1.046859920E-1,3.852444589E-1
3.290858630E1,9.969695091E0,-3.379862010E-1,7.040880919E-1
3.292804901E1,9.942177773E0,-2.536391914E-1,9.637092948E-1
3.294751172E1,9.862616539E0,1.609173268E-1,8.267202377E-1
3.296697443E1,9.792028427E0,4.492524564E-1,3.708875179E-1
3.298643703E1,9.723833084E0,3.637090325E-1,1.328016520E-1
3.300589974E1,9.690931320E0,2.632104978E-2,2.925225794E-1
3.302536245E1,9.809974670E0,-3.816552162E-1,6.101697683E-1
3.304482515E1,9.932606697E0,-6.257231236E-1,7.435696125E-1
3.306428786E1,9.924231529E0,-6.436693072E-1,6.526423693E-1
3.308375057E1,9.868598938E0,-4.749752879E-1,4.492524564E-1
3.310321328E1,9.766305923E0,-2.410768867E-1,2.721835673E-1
3.312267599E1,9.701699257E0,-1.292124242E-1,1.417747438E-1
3.314213870E1,9.720842361E0,-1.519442350E-1,2.045863420E-1
3.316160140E1,9.851250648E0,-2.338984162E-1,3.361915946E-1
3.318106411E1,1.001156998E1,-2.518445849E-1,2.662015259E-1
3.320052682E1,1.010130119E1,-1.597209126E-1,2.572284266E-2
3.321998942E1,1.007258701E1,-4.486542568E-2,-2.243271172E-1
3.323945213E1,1.007019424E1,2.093719877E-2,-2.279163599E-1
3.325891484E1,1.008395290E1,1.692921966E-1,-2.452643216E-2
3.327837755E1,1.005165005E1,3.361915946E-1,1.603191197E-1
3.329784026E1,9.851250648E0,3.595215976E-1,2.500499785E-1
3.331730297E1,9.708279610E0,2.099701911E-1,1.746760458E-1
3.333676568E1,9.777072906E0,1.016949639E-1,-2.392822644E-3
3.335622838E1,9.897911072E0,5.982056726E-3,-3.828516230E-2
3.337569109E1,9.980463028E0,-1.070788130E-1,4.606183618E-2
3.339515380E1,9.980463028E0,-9.332008660E-2,2.315055877E-1
3.341461651E1,9.917053223E0,-1.136590727E-2,4.073780477E-1
3.343407922E1,9.913464546E0,2.811566554E-2,6.089733839E-1
3.345354192E1,9.878170013E0,2.392822644E-3,6.753742099E-1
3.347300463E1,9.786644936E0,-3.230310604E-2,4.827519655E-1
3.349246734E1,9.758528709E0,-1.351944804E-1,2.542374134E-1
3.351193005E1,9.804591179E0,-2.021935135E-1,1.381855011E-1
3.353139276E1,9.868598938E0,-7.896314561E-2,1.363908947E-1
3.355085547E1,9.983454704E0,6.460621208E-2,1.220339537E-1
3.357031818E1,1.003250694E1,1.842473447E-1,9.332008660E-2
3.358978088E1,9.923035622E0,2.069791555E-1,5.982056633E-2
3.360924359E1,9.789037704E0,2.309073806E-1,-1.316052489E-2
3.362870630E1,9.759725571E0,3.762713671E-1,-9.391828626E-2
3.364816901E1,9.769296646E0,4.486542344E-1,-1.399801224E-1
3.366763172E1,9.850652695E0,3.966103494E-1,-2.937189937E-1
3.368709443E1,9.934999466E0,4.839483798E-1,-3.349951804E-1
3.370655713E1,1.000558758E1,5.270192027E-1,-1.543370634E-1
3.372601984E1,9.891330719E0,-5.204389244E-2,3.296113312E-1
3.374548255E1,9.463613510E0,-6.047859192E-1,2.781656384E-1
3.376494526E1,9.384052277E0,-7.357929349E-1,-4.187439755E-2
3.378440797E1,9.868598938E0,-7.830511928E-1,-1.232303679E-1
3.380387068E1,1.015214825E1,-5.868397355E-1,2.781656384E-1
3.382333338E1,1.028794098E1,-2.338984162E-1,6.999006271E-1
3.384279609E1,1.013240719E1,2.763710022E-1,3.726821244E-1
3.386225880E1,9.895518303E0,7.459624410E-1,-6.221338734E-2
3.388172151E1,9.805787086E0,8.237292171E-1,-1.160518974E-1
3.390118422E1,9.709476471E0,6.801598072E-1,1.674975827E-2
3.392064692E1,9.583852768E0,4.660021961E-1,1.016949639E-1
3.394010963E1,9.707681656E0,2.009970993E-1,4.486542568E-2
3.395957234E1,9.946365356E0,1.268195957E-1,6.460621208E-2
3.397903505E1,1.010429192E1,1.645065546E-1,1.477568001E-1
3.399849776E1,1.023350430E1,1.902294010E-1,1.256231815E-1
3.401796047E1,1.011206818E1,1.178465188E-1,1.465603858E-1
3.403742318E1,9.806983948E0,2.991028316E-2,1.579262912E-1
3.405688588E1,9.604789734E0,5.264209956E-2,5.204389244E-2
3.407634859E1,9.606584549E0,1.531406492E-1,4.606183618E-2
3.409581130E1,9.680164337E0,1.866401732E-1,7.537391037E-2
3.411527401E1,9.786046028E0,8.793623000E-2,7.956135273E-2
3.413473672E1,9.933803558E0,6.340979785E-2,1.435693651E-1
3.415419942E1,9.949356079E0,1.351944804E-1,1.627119333E-1
3.417366213E1,9.862018585E0,2.123630047E-1,1.160518974E-1
3.419312484E1,9.814162254E0,2.662015259E-1,1.022931710E-1
3.421258755E1,9.914062500E0,2.303091735E-1,1.076770201E-1
3.423205026E1,9.982257843E0,1.471585929E-1,8.554340899E-2
3.425151297E1,9.929615974E0,1.196411345E-2,7.417750359E-2
3.427097568E1,9.878170013E0,-2.333002165E-2,1.232303679E-1
3.429043838E1,9.814162254E0,8.374879137E-3,1.082752272E-1
3.430990109E1,9.823135376E0,2.691925503E-2,1.322034448E-1
3.432936380E1,9.923633575E0,9.272187948E-2,2.159522474E-1
3.434882651E1,9.967901230E0,1.621137410E-1,2.530409992E-1
3.436828922E1,9.934999466E0,1.968096644E-1,1.429711580E-1
3.438775192E1,9.862616539E0,2.003988922E-1,5.982056609E-4
3.440721463E1,9.763913155E0,1.668993831E-1,-5.922235921E-2
3.442667734E1,9.790233612E0,1.166501045E-1,-8.494520187E-2
3.444614005E1,9.863813400E0,1.465603858E-1,-1.016949583E-2
3.446560276E1,9.933204651E0,2.554338276E-1,4.187439755E-2
3.448506547E1,9.993623734E0,3.194418252E-1,-6.999006122E-2
3.450452828E1,9.945767403E0,2.560320199E-1,-9.571290761E-2
3.452399099E1,9.878767967E0,1.543370634E-1,-2.333002165E-2
3.454345370E1,9.881160736E0,8.853443712E-2,5.264209956E-2
3.456291640E1,9.848857880E0,1.214357466E-1,1.034895778E-1
3.458237911E1,9.783653259E0,1.579262912E-1,2.093719877E-2
3.460184182E1,9.761520386E0,2.081755698E-1,-1.118644550E-1
3.462130453E1,9.808777809E0,2.195414752E-1,-1.519442350E-1
3.464076724E1,9.873384476E0,1.866401732E-1,-1.345962733E-1
3.466022995E1,9.914062500E0,1.537388563E-1,-1.058823988E-1
3.467969265E1,9.927821159E0,1.429711580E-1,-9.750752151E-2
3.469915536E1,9.884750366E0,1.800599098E-1,-5.204389244E-2
3.471861807E1,9.796216011E0,2.003988922E-1,-2.333002165E-2
3.473808078E1,9.734002113E0,2.183450609E-1,-1.316052489E-2
3.475754349E1,9.737591743E0,2.667997181E-1,2.452643216E-2
3.477700620E1,9.814162254E0,3.684946895E-1,2.033899166E-2
3.479646890E1,9.917651176E0,4.522434771E-1,-5.264209956E-2
3.481593161E1,9.949356079E0,4.420739710E-1,-1.184447184E-1
3.483539443E1,9.923633575E0,3.930211067E-1,-7.716853172E-2
3.485485713E1,9.858428955E0,3.397808075E-1,-1.794617064E-2
3.487431984E1,9.812965393E0,3.104687333E-1,9.451649338E-2
3.489378255E1,9.745368004E0,2.662015259E-1,1.591227055E-1
3.491324526E1,9.866804123E0,3.583251834E-1,7.238288224E-2
3.493270797E1,9.936196327E0,5.066801906E-1,-2.512463741E-2
3.495217068E1,9.879964828E0,5.114658475E-1,-6.041877344E-2
3.497163338E1,9.847063065E0,3.894318938E-1,-3.708875179E-2
3.499109609E1,9.869196892E0,3.200400174E-1,3.708875179E-2
3.501055880E1,9.837491989E0,3.786641955E-1,1.202393398E-1
3.503002151E1,9.746564865E0,4.785645306E-1,7.298108935E-2
3.504948432E1,9.797411919E0,5.150550604E-1,-2.991028363E-3
3.506894703E1,9.919445992E0,5.252245665E-1,-8.913264424E-2
3.508840974E1,9.939785004E0,4.863412082E-1,-1.238285750E-1
3.510787245E1,9.896714211E0,4.217349887E-1,-8.135596663E-2
3.512733515E1,9.923633575E0,3.840480447E-1,-5.144568533E-2
3.514679786E1,9.976275444E0,3.972085714E-1,-1.555334777E-1
3.516626057E1,9.939187050E0,3.912265003E-1,-2.171486616E-1
3.518572328E1,9.884750366E0,3.475574851E-1,-1.603191197E-1
3.520518599E1,9.902696609E0,3.284149170E-1,-5.982056633E-2
3.522464870E1,9.839884758E0,3.655036688E-1,1.495514158E-2
3.524411140E1,9.753743172E0,4.067798555E-1,2.931207791E-2
3.526357422E1,9.735198975E0,4.121637046E-1,-7.178467698E-3
3.528303693E1,9.748957634E0,3.188436031E-1,-9.750752151E-2
3.530249963E1,9.846465111E0,2.380858511E-1,-1.034895778E-1
3.532196234E1,9.863214493E0,2.141576260E-1,-2.991028363E-3
3.534142505E1,9.851250648E0,3.092723191E-1,-1.794617064E-2
3.536088776E1,9.958329201E0,3.762713671E-1,-1.160518974E-1
3.538035047E1,9.884152412E0,3.744767308E-1,-1.668993831E-1
3.539981318E1,9.829116821E0,3.248256743E-1,-1.226321608E-1
3.541927588E1,9.873384476E0,2.644068897E-1,4.965107143E-2
3.543873870E1,9.874580383E0,2.105683982E-1,1.866401732E-1
3.545820140E1,9.838688850E0,2.404786795E-1,1.525424421E-1
3.547766411E1,9.850652695E0,2.895315289E-1,3.589233849E-3
3.549712682E1,9.891928673E0,3.439682424E-1,-1.956132501E-1
3.551658953E1,9.865608215E0,3.529413342E-1,-2.769692242E-1
3.553605224E1,9.856635094E0,3.643072546E-1,-2.338984162E-1
3.555551495E1,9.854840279E0,3.948157430E-1,-9.810572863E-2
3.557497765E1,9.832706451E0,3.714857101E-1,-3.649054468E-2
3.559444047E1,9.853045464E0,3.248256743E-1,-2.392822690E-2
3.561390318E1,9.844072342E0,2.656033039E-1,1.794616925E-3
3.563336588E1,9.859625816E0,2.362912297E-1,1.495514158E-2
3.565282859E1,9.912865639E0,2.207378894E-1,-3.649054468E-2
3.567229130E1,9.924830437E0,2.667997181E-1,-9.631111473E-2
3.569175401E1,9.915258408E0,3.260220885E-1,-1.004985496E-1
3.571121672E1,9.878767967E0,3.601198196E-1,-1.034895778E-1
3.573067943E1,9.869196892E0,3.373879790E-1,-7.657032460E-2
3.575014224E1,9.806983948E0,2.841476798E-1,-2.632104978E-2
3.576960495E1,9.812367439E0,2.715853751E-1,-5.982056726E-3
3.578906765E1,9.927821159E0,2.907279432E-1,-1.016949639E-1
3.580853036E1,9.909874916E0,2.961117923E-1,-1.286142170E-1
3.582799307E1,9.878170013E0,2.524427772E-1,-6.101697683E-2
3.584745578E1,9.917053223E0,1.974078715E-1,2.991028316E-2
3.586691849E1,9.923035622E0,1.609173268E-1,8.195417374E-2
3.588638130E1,9.854242325E0,1.663011760E-1,7.058826834E-2
3.590584401E1,9.793225288E0,1.890329868E-1,4.965107143E-2
3.592530672E1,9.777072906E0,1.974078715E-1,3.529413417E-2
3.594476943E1,9.821340561E0,1.429711580E-1,1.435693540E-2
3.596423213E1,9.932008743E0,1.417747438E-1,-4.606183618E-2
3.598369484E1,1.002592659E1,1.680957973E-1,-7.597211748E-2
3.600315755E1,1.002891827E1,2.159522474E-1,-4.426721856E-2
3.602262036E1,9.945169449E0,2.458625287E-1,2.512463741E-2
3.604208307E1,9.809974670E0,2.201396823E-1,9.690931439E-2
3.606154578E1,9.731609344E0,2.111666054E-1,1.501496136E-1
3.608100849E1,9.799206734E0,2.075773627E-1,1.854437590E-1
3.610047120E1,1.003729248E1,1.818545163E-1,1.537388563E-1
3.611993390E1,1.019820976E1,1.333998591E-1,1.148554832E-1
3.613939672E1,1.005224800E1,7.597211748E-2,2.452643216E-2
3.615885942E1,9.775876999E0,5.623133108E-2,-3.888336942E-2
3.617832213E1,9.694520950E0,1.363908947E-1,9.391828626E-2
3.619778484E1,9.774082184E0,1.722832322E-1,2.165504545E-1
3.621724755E1,9.811769485E0,2.141576260E-1,3.529413417E-2
3.623671026E1,9.734601021E0,2.919243574E-1,-9.511470050E-2
3.625617307E1,9.699306488E0,2.805584669E-1,-2.093719840E-1
3.627563578E1,9.814760208E0,1.549352705E-1,-1.339980662E-1
3.629509849E1,9.912267685E0,7.417750359E-2,1.142572835E-1
3.631456120E1,9.884152412E0,6.460621208E-2,2.482553422E-1
3.633402390E1,9.873982430E0,4.307080805E-2,2.285145670E-1
3.635348661E1,9.891330719E0,-7.776673418E-3,1.806581169E-1
3.637294942E1,9.850652695E0,1.794617064E-2,1.441675574E-1
3.639241213E1,9.804591179E0,8.195417374E-2,1.004985496E-1
3.641187484E1,9.736993790E0,1.208375469E-1,1.387837082E-1
3.643133755E1,9.761520386E0,1.028913707E-1,1.812563092E-1
3.645080026E1,9.814162254E0,5.742774159E-2,1.573280841E-1
3.647026307E1,9.838089943E0,4.307080805E-2,1.333998591E-1
3.648972578E1,9.875777245E0,6.939185411E-2,1.004985496E-1
3.650918849E1,9.945169449E0,1.160518974E-1,1.106680483E-1
3.652865120E1,9.924830437E0,1.537388563E-1,1.992024779E-1
3.654811390E1,9.852447510E0,1.728814393E-1,3.182454109E-1
3.656757672E1,9.803394318E0,1.202393398E-1,3.326023519E-1
3.658703942E1,9.826724052E0,4.486542568E-2,2.338984162E-1
3.660650213E1,9.909276962E0,-1.435693540E-2,1.710868180E-1
3.662596484E1,9.887741089E0,-1.615155302E-2,2.536391914E-1
3.664542755E1,9.818947792E0,1.256231871E-2,2.261217386E-1
3.666489036E1,9.814162254E0,8.255238086E-2,1.974078715E-1
3.668435307E1,9.833304405E0,1.136590764E-1,1.920240223E-1
3.670381578E1,9.897911072E0,1.004985496E-1,1.519442350E-1
3.672327849E1,9.924231529E0,8.315058798E-2,9.810572863E-2
3.674274120E1,9.881759644E0,8.255238086E-2,4.426721856E-2
3.676220401E1,9.861420631E0,9.152546525E-2,2.931207791E-2
3.678166672E1,9.900901794E0,8.673982322E-2,2.452643216E-2
3.680112942E1,9.930811882E0,4.905286431E-2,-1.435693540E-2
3.682059213E1,9.934999466E0,2.153540403E-2,-7.238288224E-2
3.684005484E1,9.936196327E0,3.469592705E-2,-3.888336942E-2
3.685951765E1,9.924231529E0,7.657032460E-2,2.153540403E-2
3.687898036E1,9.920642853E0,7.597211748E-2,8.913264424E-2
3.689844307E1,9.917651176E0,8.195417374E-2,1.028913707E-1
3.691790578E1,9.888339996E0,1.405783296E-1,4.486542568E-2
3.693736849E1,9.812965393E0,1.836491376E-1,-4.666004330E-2
3.695683130E1,9.757930756E0,1.896311939E-1,-1.112662554E-1
3.697629401E1,9.784252167E0,1.842473447E-1,-1.525424421E-1
3.699575672E1,9.862616539E0,1.357926875E-1,-1.076770201E-1
3.701521943E1,9.961918831E0,6.221338734E-2,-1.058823988E-1
3.703468224E1,1.004626560E1,3.589233849E-3,-1.232303679E-1
3.705414495E1,9.957133293E0,-4.785645287E-3,-6.759724021E-2
3.707360765E1,9.866206169E0,6.101697683E-2,-6.161518395E-2
3.709307036E1,9.844072342E0,1.537388563E-1,-1.124626622E-1
3.711253307E1,9.866206169E0,1.310070455E-1,-1.357926875E-1
3.713199588E1,9.868000984E0,2.871387079E-2,-1.375873089E-1
3.715145859E1,9.861420631E0,-1.016949583E-2,-5.443671346E-2
3.717092130E1,9.826724052E0,2.931207791E-2,3.708875179E-2
3.719038401E1,9.728618622E0,1.064806059E-1,-7.776673418E-3
3.720984682E1,9.758528709E0,1.423729509E-1,-9.990034252E-2
3.722930953E1,9.899705887E0,9.451649338E-2,-1.597209126E-1
3.724877224E1,9.933803558E0,5.802594870E-2,-1.950150430E-1
3.726823495E1,9.912267685E0,3.349951655E-2,-1.322034448E-1
3.728769776E1,9.859625816E0,5.503492057E-2,-5.204389244E-2
3.730716047E1,9.798608780E0,9.272187948E-2,2.273181453E-2
3.732662318E1,9.783653259E0,1.016949639E-1,4.606183618E-2
3.734608588E1,9.805189133E0,1.118644550E-1,5.982056609E-4
3.736554870E1,9.846465111E0,1.100698411E-1,-5.324030295E-2
3.738501140E1,9.896116257E0,1.238285750E-1,-6.161518395E-2
3.740447411E1,9.900303841E0,1.447657645E-1,-5.802594870E-2
3.742393682E1,9.890133858E0,1.483550072E-1,-4.187439755E-2
3.744339963E1,9.951749802E0,1.393819153E-1,-3.529413417E-2
3.746286234E1,9.988838196E0,1.130608693E-1,1.196411345E-2
3.748232505E1,9.860223770E0,1.022931710E-1,7.477571070E-2
3.750178776E1,9.801001549E0,1.244267747E-1,2.991028363E-3
3.752125057E1,9.848259926E0,1.770688742E-1,-3.469592705E-2
3.754071328E1,9.847063065E0,1.974078715E-1,-7.537391037E-2
3.756017599E1,9.884750366E0,1.639083475E-1,-6.161518395E-2
3.757963870E1,9.914062500E0,9.870393574E-2,6.041877344E-2
3.759910151E1,9.920044899E0,4.666004330E-2,1.758724600E-1
3.761856422E1,9.834501266E0,8.494520187E-2,1.585244983E-1
3.763802693E1,9.795019150E0,8.733802289E-2,5.922235921E-2
3.765748963E1,9.878767967E0,1.202393398E-1,-6.460621208E-2
3.767695245E1,9.905687332E0,1.537388563E-1,-1.172483116E-1
3.769641515E1,9.856635094E0,1.758724600E-1,-1.034895778E-1
3.771587786E1,9.848259926E0,1.585244983E-1,-7.238288224E-2
3.773534057E1,9.917651176E0,1.363908947E-1,-1.555334684E-2
3.775480338E1,9.921838760E0,1.543370634E-1,3.469592705E-2
3.777426609E1,9.902098656E0,1.357926875E-1,4.426721856E-2
3.779372880E1,9.885947227E0,1.094716340E-1,2.213360928E-2
3.781319151E1,9.854242325E0,1.028913707E-1,4.187439568E-3
3.783265432E1,9.830313683E0,1.268195957E-1,5.982056609E-4
3.785211703E1,9.802796364E0,1.800599098E-1,8.374879137E-3
3.787157974E1,9.827322960E0,1.962114573E-1,-9.571290575E-3
3.789104245E1,9.928419113E0,1.477568001E-1,4.546362907E-2
3.791050526E1,9.891928673E0,1.082752272E-1,1.710868180E-1
3.792996797E1,9.844670296E0,1.106680483E-1,1.076770201E-1
3.794943068E1,9.801599503E0,1.686939895E-1,3.050848842E-2
3.796889338E1,9.778867722E0,2.099701911E-1,-1.854437590E-2
3.798835620E1,9.836296082E0,1.537388563E-1,1.136590727E-2
3.800781890E1,9.935597420E0,1.076770201E-1,1.166501045E-1
3.802728161E1,9.961918831E0,1.142572835E-1,2.039881349E-1
3.804674442E1,9.872786522E0,1.256231815E-1,1.836491376E-1
3.806620713E1,9.804591179E0,1.298106313E-1,1.351944804E-1
3.808566984E1,9.799804688E0,1.238285750E-1,1.160518974E-1
3.810513255E1,9.873384476E0,9.870393574E-2,9.750752151E-2
3.812459536E1,9.897313118E0,9.750752151E-2,8.135596663E-2
3.814405807E1,9.873982430E0,9.870393574E-2,1.040877849E-1
3.816352078E1,9.861420631E0,9.332008660E-2,1.088734269E-1
3.818298349E1,9.853045464E0,1.124626622E-1,1.274178028E-1
3.820244630E1,9.835099220E0,1.333998591E-1,1.651047617E-1
3.822190901E1,9.850054741E0,1.381855011E-1,1.866401732E-1
3.824137172E1,9.843474388E0,1.357926875E-1,1.782652885E-1
3.826083443E1,9.829116821E0,1.304088384E-1,1.154536903E-1
3.828029724E1,9.834501266E0,1.387837082E-1,6.340979785E-2
3.829975995E1,9.931410789E0,1.471585929E-1,4.785645287E-3
3.831922265E1,1.000678444E1,1.004985496E-1,4.127619043E-2
3.833868547E1,9.894321442E0,8.374879509E-2,1.980060786E-1
3.835814818E1,9.822537422E0,9.810572863E-2,2.632105052E-1
3.837761088E1,9.742975235E0,1.226321608E-1,2.075773627E-1
3.839707359E1,9.673583984E0,8.913264424E-2,8.075776696E-2
3.841653640E1,9.750752449E0,5.204389244E-2,7.776673418E-3
3.843599911E1,9.911669731E0,8.015955985E-2,6.161518395E-2
3.845546182E1,9.939187050E0,1.519442350E-1,9.930214286E-2
3.847492463E1,9.917053223E0,1.345962733E-1,1.034895778E-1
3.849438734E1,9.918250084E0,9.391828626E-2,9.631111473E-2
3.851385005E1,9.899705887E0,7.716853172E-2,5.742774159E-2
3.853331276E1,9.856036186E0,9.212367237E-2,3.290131316E-2
3.855277557E1,9.871589661E0,1.076770201E-1,2.333002165E-2
3.857223828E1,9.869196892E0,7.357929647E-2,6.520441920E-2
3.859170099E1,9.844072342E0,4.606183618E-2,7.417750359E-2
3.861116370E1,9.828518867E0,1.674975827E-2,7.657032460E-2
3.863062651E1,9.860821724E0,6.340979785E-2,7.118647546E-2
3.865008922E1,9.879964828E0,1.423729509E-1,8.853443712E-2
3.866955192E1,9.879366875E0,1.692921966E-1,3.529413417E-2
3.868901474E1,9.888339996E0,1.441675574E-1,-2.632104978E-2
3.870847745E1,9.897313118E0,8.315058798E-2,-3.888336942E-2
3.872794015E1,9.911669731E0,3.529413417E-2,-3.768695518E-2
3.874740297E1,9.927821159E0,1.674975827E-2,1.196411345E-2
3.876686568E1,9.831509590E0,2.273181453E-2,8.853443712E-2
3.878632838E1,9.798608780E0,3.050848842E-2,5.383851007E-3
3.880579109E1,9.814760208E0,9.631111473E-2,-5.024927482E-2
3.882525390E1,9.890732765E0,7.058826834E-2,-1.142572835E-1
3.884471661E1,9.958329201E0,2.512463741E-2,-1.052841991E-1
3.886417932E1,9.919445992E0,-1.076770201E-2,-1.316052489E-2
3.888364213E1,9.805189133E0,3.290131316E-2,7.477571070E-2
3.890310484E1,9.721440315E0,4.845465720E-2,5.922235921E-2
3.892256755E1,9.754940033E0,4.307080805E-2,-3.230310604E-2
3.894203036E1,9.875179291E0,2.572284266E-2,-1.429711580E-1
3.896149307E1,9.964909554E0,1.674975827E-2,-1.740778536E-1
3.898095578E1,9.966704369E0,2.691925503E-2,-1.483550072E-1
3.900041849E1,9.918250084E0,2.273181453E-2,-7.477571070E-2
3.901988130E1,9.832706451E0,5.982056726E-3,-1.914258115E-2
3.903934401E1,9.789635658E0,2.213360928E-2,-1.794617064E-2
3.905880672E1,9.814162254E0,5.144568533E-2,-7.417750359E-2
3.907826953E1,9.875179291E0,6.999006122E-2,-9.810572863E-2
3.909773224E1,9.937392235E0,5.144568533E-2,-6.580262631E-2
3.911719495E1,9.953543663E0,5.144568533E-2,-4.007977992E-2
3.913665776E1,9.914062500E0,3.589234129E-2,-3.768695518E-2
3.915612047E1,9.880562782E0,2.392822690E-2,-6.041877344E-2
3.917558318E1,9.930811882E0,4.366901144E-2,-6.161518395E-2
3.919504599E1,9.837491989E0,6.041877344E-2,3.649054468E-2
3.921450870E1,9.780064583E0,5.742774159E-2,-2.991028363E-3
3.923397140E1,9.820143700E0,1.100698411E-1,-3.050848842E-2
3.925343411E1,9.866206169E0,1.172483116E-1,-5.144568533E-2
3.927289693E1,9.914062500E0,6.101697683E-2,-4.067798331E-2
3.929235963E1,9.907482147E0,5.982056609E-4,3.768695518E-2
3.931182234E1,9.866206169E0,-3.409772366E-2,1.423729509E-1
3.933128515E1,9.793823242E0,1.076770201E-2,1.202393398E-1
3.935074786E1,9.783055305E0,5.922235921E-2,2.033899166E-2
3.937021057E1,9.861420631E0,5.922235921E-2,-7.657032460E-2
3.938967338E1,9.994221687E0,5.742774159E-2,-1.178465188E-1
3.940913609E1,1.003071213E1,5.084748194E-2,-1.076770201E-1
3.942859880E1,9.952945709E0,2.033899166E-2,-4.307080805E-2
3.944806161E1,9.821340561E0,-2.153540403E-2,3.828516230E-2
3.946752432E1,9.739984512E0,-2.392822690E-2,1.034895778E-1
3.948698703E1,9.706484795E0,5.982056726E-3,1.046859920E-1
3.950644974E1,9.795618057E0,1.316052489E-2,3.529413417E-2
3.952591255E1,9.900901794E0,2.931207791E-2,-3.469592705E-2
3.954537526E1,9.985847473E0,6.221338734E-2,-5.503492057E-2
3.956483797E1,9.954740524E0,8.075776696E-2,-2.751746029E-2
3.958430078E1,9.891928673E0,4.426721856E-2,1.375873014E-2
3.960376349E1,9.871589661E0,2.273181453E-2,8.673982322E-2
3.962322620E1,9.821938515E0,-1.974078640E-2,1.842473447E-1
3.964268901E1,9.783055305E0,-2.811566554E-2,1.196411327E-1
3.966215172E1,9.853643417E0,3.708875179E-2,1.914258115E-2
3.968161442E1,9.892526627E0,9.930214286E-2,-5.862415582E-2
3.970107724E1,9.899106979E0,7.657032460E-2,-3.888336942E-2
3.972053995E1,9.930213928E0,3.050848842E-2,4.725824669E-2
3.974000265E1,9.920044899E0,5.383851007E-3,1.872383654E-1
3.975946547E1,9.845269203E0,-1.854437590E-2,2.003988922E-1
3.977892818E1,9.802796364E0,-2.691925503E-2,1.262213886E-1
3.979839088E1,9.843474388E0,-3.589233849E-3,5.742774159E-2
3.981785370E1,9.888339996E0,2.751746029E-2,2.273181453E-2
3.983731640E1,9.888339996E0,5.982056633E-2,1.136590727E-2
3.985677911E1,9.879366875E0,8.195417374E-2,5.144568533E-2
3.987624182E1,9.852447510E0,4.725824669E-2,8.494520187E-2
3.989570463E1,9.862018585E0,2.991028316E-2,1.202393398E-1
3.991516734E1,9.860821724E0,2.991028316E-2,1.345962733E-1
3.993463005E1,9.841081619E0,5.264209956E-2,1.214357466E-1
3.995409286E1,9.821938515E0,6.699903309E-2,1.028913707E-1
3.997355557E1,9.839286804E0,7.417750359E-2,9.092725813E-2
