"Time (s)","Gyroscope x (rad/s)","Gyroscope y (rad/s)","Gyroscope z (rad/s)"
6.450861500E-2,-4.535670951E-2,3.124573231E-1,2.328922041E-2
8.396986500E-2,-4.428769648E-2,3.301724195E-1,7.635809743E-5
1.034334070E-1,-5.009091273E-2,3.268126547E-1,-2.985601686E-2
1.228946570E-1,-5.955931544E-2,3.210094273E-1,-5.535962060E-2
1.423581980E-1,-7.498364896E-2,3.008508980E-1,-7.506000996E-2
1.618194480E-1,-9.880737960E-2,2.538143098E-1,-9.720385820E-2
1.812829900E-1,-1.163697392E-1,1.902843714E-1,-1.100320220E-1
2.007442400E-1,-1.307250559E-1,1.284343153E-1,-1.136972085E-1
2.202077820E-1,-1.542433500E-1,1.006399691E-1,-1.051450968E-1
2.396690320E-1,-1.844811589E-1,1.039997265E-1,-8.025235683E-2
2.591325730E-1,-2.138026655E-1,9.575305134E-2,-4.451677203E-2
2.785938230E-1,-2.306014597E-1,6.780599058E-2,-2.435823344E-2
2.980573650E-1,-2.344193608E-1,2.764163166E-2,-1.702785492E-2
3.175186150E-1,-2.386954129E-1,4.581485991E-4,-1.153007243E-2
3.369821570E-1,-2.269362658E-1,-4.734201822E-3,-3.130682046E-3
3.564434070E-1,-1.866191924E-1,4.886918236E-3,-2.825249685E-3
3.759070520E-1,-1.172860414E-1,-4.123337101E-3,-1.756236190E-3
3.953681980E-1,-3.619373962E-2,-2.046396956E-2,2.214384731E-3
4.148318440E-1,1.527161920E-3,-2.199113183E-2,-8.475748822E-3
4.342929900E-1,-2.046396956E-2,-4.413498193E-2,-3.153589368E-2
4.537566360E-1,-6.566796452E-2,-8.139773458E-2,-5.429060757E-2
4.732177820E-1,-1.038470119E-1,-1.009454057E-1,-6.772962958E-2
4.926814270E-1,-1.209512278E-1,-1.082757786E-1,-6.986765563E-2
5.121425730E-1,-1.186604798E-1,-1.356119812E-1,-6.757691503E-2
5.316062190E-1,-9.728021920E-2,-1.832594275E-1,-7.170025259E-2
5.510673650E-1,-7.742711157E-2,-2.548833191E-1,-8.910989761E-2
5.705310110E-1,-1.065959036E-1,-2.893971801E-1,-1.130863428E-1
5.899921570E-1,-1.742491722E-1,-2.583957911E-1,-1.402698308E-1
6.094558020E-1,-2.105956376E-1,-2.057087123E-1,-1.544724256E-1
6.289169480E-1,-1.786779463E-1,-1.831067204E-1,-1.419496983E-1
6.483805940E-1,-1.033888608E-1,-1.973093301E-1,-1.347720474E-1
6.678417400E-1,-3.191768378E-2,-2.150243968E-1,-1.372154951E-1
6.873053860E-1,-2.443459118E-3,-1.986837685E-1,-1.311068535E-1
7.067666360E-1,-5.803215317E-3,-1.412624866E-1,-1.089630052E-1
7.262301770E-1,4.428769462E-3,-6.383536756E-2,-6.467530876E-2
7.456914270E-1,5.238165334E-2,1.007926930E-2,-5.268708803E-3
7.651549690E-1,1.148425788E-1,6.536252797E-2,5.871937796E-2
7.846162190E-1,1.464548260E-1,7.651081681E-2,1.243873388E-1
8.040797610E-1,1.356119812E-1,5.879573524E-2,1.824194938E-1
8.235410110E-1,8.964440972E-2,6.001746282E-2,2.100611329E-1
8.430045520E-1,5.696314201E-2,7.635809481E-2,2.132681608E-1
8.624658020E-1,5.222893879E-2,9.269873053E-2,2.225838602E-1
8.819293440E-1,4.459312931E-2,9.896009415E-2,2.120464295E-1
9.013905940E-1,5.314523727E-2,9.514218569E-2,1.721875072E-1
9.208541360E-1,8.353576064E-2,1.049160287E-1,1.245400533E-1
9.403153860E-1,1.073594838E-1,1.808159798E-1,1.042288020E-1
9.597789270E-1,1.056796089E-1,2.554942071E-1,9.964732081E-2
9.792401770E-1,9.880737960E-2,2.415970266E-1,9.277509153E-2
9.987037190E-1,1.192713454E-1,1.598938555E-1,7.582359016E-2
1.018164969E0,1.707367003E-1,6.582067907E-2,5.001455545E-2
1.037628511E0,2.076940238E-1,1.572976820E-2,4.130972922E-2
1.057089761E0,2.110537887E-1,2.214384824E-2,4.818195850E-2
1.076553407E0,1.846338809E-1,3.375028074E-2,6.589704007E-2
1.096014552E0,1.288924664E-1,2.290742844E-2,8.620829135E-2
1.115478198E0,6.001746282E-2,1.237001177E-2,9.369138628E-2
1.134939344E0,5.650499370E-3,1.145371422E-2,8.605557680E-2
1.154402990E0,-2.748891525E-2,1.175914705E-2,6.223184988E-2
1.173864136E0,-4.596757516E-2,1.756236330E-2,4.130972922E-2
1.193327782E0,-4.291325063E-2,4.382954910E-2,2.634354308E-2
1.212788927E0,-1.893680729E-2,8.491020650E-2,2.390008420E-2
1.232252573E0,2.458730713E-2,1.288924664E-1,3.596466407E-2
1.251713719E0,8.216131479E-2,1.369864196E-1,5.108356848E-2
1.271177365E0,1.334739476E-1,9.712749720E-2,6.253728271E-2
1.290638511E0,1.539379209E-1,3.787361458E-2,5.749764666E-2
1.310102157E0,1.559232324E-1,-9.010255337E-3,4.253146052E-2
1.329563407E0,1.687513888E-1,-3.420842811E-2,3.138317913E-2
1.349026948E0,1.899789423E-1,-4.367683083E-2,3.168861195E-2
1.368488198E0,1.948658675E-1,-5.054906011E-2,3.443750367E-2
1.387951740E0,1.841757298E-1,-5.161807314E-2,3.367391974E-2
1.407412990E0,1.887572110E-1,-6.780599058E-2,2.695440874E-2
1.426876532E0,2.229656428E-1,-8.521563560E-2,3.016144782E-2
1.446337782E0,2.483165264E-1,-9.834922850E-2,2.955058403E-2
1.465801323E0,2.351829410E-1,-1.122464016E-1,2.603811212E-2
1.485262573E0,1.974620372E-1,-1.165224537E-1,1.809686981E-2
1.504726115E0,1.663079411E-1,-1.010981202E-1,8.628465235E-3
1.524187365E0,1.696676910E-1,-7.803797722E-2,4.199695308E-3
1.543650907E0,2.028071135E-1,-5.818486959E-2,6.337722298E-3
1.563112157E0,2.347247899E-1,-4.199695215E-2,1.336266659E-2
1.582575698E0,2.345720828E-1,-3.940077871E-2,1.534797717E-2
1.602036948E0,2.055560052E-1,-4.734202102E-2,5.421424750E-3
1.621500490E0,1.733328849E-1,-6.078104675E-2,-1.603520010E-3
1.640961740E0,1.682932526E-1,-7.635809481E-2,-4.963276442E-3
1.660425282E0,1.823431402E-1,-9.162971377E-2,-5.574141163E-3
1.679886532E0,1.873827726E-1,-1.072067693E-1,1.603520010E-3
1.699350177E0,1.653916389E-1,-1.064431891E-1,1.458439697E-2
1.718811323E0,1.262962967E-1,-9.361502528E-2,2.710712515E-2
1.738274969E0,8.674279600E-2,-8.796452731E-2,3.886627033E-2
1.757736115E0,6.658425927E-2,-8.292489499E-2,4.879282415E-2
1.777199761E0,6.032289565E-2,-9.575305134E-2,5.597048625E-2
1.796660907E0,4.550942779E-2,-1.153007299E-1,5.444332212E-2
1.816124552E0,2.687804960E-2,-1.317940801E-1,4.405862093E-2
1.835585698E0,7.483093534E-3,-1.441640854E-1,2.802342176E-2
1.855049344E0,-1.374445762E-2,-1.350011230E-1,8.781181648E-3
1.874510490E0,-3.298669681E-2,-1.276707351E-1,-3.741546767E-3
1.893974136E0,-3.405570984E-2,-1.307250559E-1,-6.032289471E-3
1.913435282E0,-2.076940238E-2,-1.197294965E-1,-7.559451740E-3
1.932898927E0,-4.581485991E-4,-9.254601598E-2,-1.336266659E-2
1.952360177E0,1.511890348E-2,-6.398808211E-2,-2.328922041E-2
1.971823719E0,2.748891525E-2,-4.612028971E-2,-2.893971838E-2
1.991284969E0,3.420842811E-2,-3.543015569E-2,-2.878700197E-2
2.010748511E0,3.527744114E-2,-2.260199748E-2,-2.298378758E-2
2.030209761E0,4.306596518E-2,3.054323897E-4,-1.977674663E-2
2.049673302E0,5.864302069E-2,2.382372692E-2,-1.672242396E-2
2.069134552E0,9.300415963E-2,2.489273995E-2,-6.185005885E-3
2.088598094E0,1.400407553E-1,1.970038936E-2,1.091920771E-2
2.108059344E0,1.577558219E-1,1.649334840E-2,1.412624773E-2
2.127522886E0,1.363755614E-1,2.458730713E-2,7.406735327E-3
2.146984136E0,1.043051630E-1,4.703658819E-2,-7.254019380E-3
2.166447677E0,8.582650125E-2,7.254019380E-2,-2.466366626E-2
2.185908927E0,8.109229803E-2,1.069013327E-1,-2.435823344E-2
2.205372469E0,7.788526267E-2,1.840230078E-1,9.697478265E-3
2.224833719E0,4.917461425E-2,2.223547846E-1,4.268417507E-2
2.244297261E0,2.474002354E-2,1.635590494E-1,4.054614902E-2
2.263758511E0,4.031707719E-2,9.086613357E-2,9.086613543E-3
2.283222157E0,9.651663154E-2,4.795288667E-2,-1.733328775E-2
2.302683302E0,1.701258421E-1,2.076940238E-2,-2.191477455E-2
2.322146948E0,1.979201883E-1,1.847865991E-2,-4.352411721E-3
2.341608094E0,1.514944583E-1,2.993237413E-2,1.809686981E-2
2.361071740E0,5.726857483E-2,2.474002354E-2,2.527453005E-2
2.380532886E0,-1.970038936E-2,-1.679878100E-3,1.244636998E-2
2.399996532E0,-5.711585656E-2,-3.283398226E-2,-1.091920771E-2
2.419457677E0,-7.422006875E-2,-4.489856213E-2,-2.344193682E-2
2.438921323E0,-6.551524997E-2,-1.649334840E-2,-2.023489587E-2
2.458382469E0,-5.115992576E-2,4.703658819E-2,4.046979360E-3
2.477846115E0,-6.093376130E-2,3.481929377E-2,1.809686981E-2
2.497307365E0,-5.467239767E-2,-3.359756246E-2,5.345066893E-4
2.516770907E0,-1.206457894E-2,-7.147117704E-2,-2.420551702E-2
2.536232157E0,3.985892609E-2,-6.765327603E-2,-2.985601686E-2
2.555695698E0,6.154462695E-2,-5.345066637E-2,-2.237292193E-2
2.575156948E0,5.955931544E-2,-3.909534588E-2,-8.933897130E-3
2.594620490E0,5.222893879E-2,-2.244928107E-2,3.894262947E-3
2.614081740E0,4.062250629E-2,-7.941242307E-3,-6.872228696E-4
2.633545282E0,2.244928107E-2,-1.099556591E-2,-1.702785492E-2
2.653006532E0,2.443459118E-3,-4.291325063E-2,-3.184132650E-2
2.672470073E0,-4.123337101E-3,-7.131846249E-2,-3.168861195E-2
2.691931323E0,7.024944760E-3,-7.315105945E-2,-1.977674663E-2
2.711394865E0,1.023198478E-2,-5.406153202E-2,-2.061668551E-3
2.730856115E0,-5.803215317E-3,-8.399390616E-3,9.086613543E-3
2.750319657E0,-2.061668597E-2,4.612028971E-2,7.712167688E-3
2.769780907E0,-1.634063199E-2,7.422006875E-2,1.076649129E-2
2.789244448E0,-7.330377586E-3,6.154462695E-2,1.382081583E-2
2.808705698E0,-9.010255337E-3,3.359756246E-2,1.366809942E-2
2.828169344E0,-2.275471389E-2,-1.679878100E-3,9.392046370E-3
2.847630490E0,-2.809977904E-2,-3.375028074E-2,5.345066893E-4
2.867094136E0,-2.199113183E-2,-4.276053607E-2,-5.574141163E-3
2.886555282E0,-7.635809947E-3,-3.191768378E-2,-1.908952487E-3
2.906018927E0,3.359756200E-3,-1.908952370E-2,7.864884101E-3
2.925480073E0,7.024944760E-3,-1.679878123E-2,1.229365356E-2
2.944943719E0,1.069013379E-3,-1.771507785E-2,9.544761851E-3
2.964404865E0,-7.635809947E-3,-2.306014486E-2,4.657844082E-3
2.983868511E0,-1.221729536E-2,-2.489273995E-2,-2.214384731E-3
3.003329657E0,-1.267544460E-2,-1.954767294E-2,-2.825249685E-3
3.022793302E0,-1.603520103E-2,-1.695149764E-2,-3.817904799E-4
3.042254448E0,-2.504545636E-2,-1.282816008E-2,3.130682046E-3
3.061718094E0,-3.375028074E-2,-7.177661173E-3,3.130682046E-3
3.081179344E0,-3.543015569E-2,1.527161920E-3,-2.061668551E-3
3.100642886E0,-2.993237413E-2,7.941242307E-3,-3.283398226E-3
3.120104136E0,-3.344484791E-2,1.725693047E-2,-2.061668551E-3
3.139567677E0,-4.657844082E-2,2.260199748E-2,-3.436114406E-3
3.159028927E0,-5.818486959E-2,2.840521187E-2,-5.574141163E-3
3.178492469E0,-5.955931544E-2,3.695731983E-2,-5.879573524E-3
3.197953719E0,-6.108647957E-2,4.703658819E-2,-2.825249685E-3
3.217417261E0,-6.475166976E-2,5.742128938E-2,-2.290742996E-4
3.236878511E0,-6.612611562E-2,6.704241037E-2,9.926552884E-4
3.256342052E0,-5.864302069E-2,7.605266571E-2,6.337722298E-3
3.275803302E0,-4.810560122E-2,9.392046183E-2,8.781181648E-3
3.295266844E0,-4.001164436E-2,8.872810751E-2,3.741546767E-3
3.314728094E0,-3.481929377E-2,7.223475724E-2,-2.672533505E-3
3.334191636E0,-3.649916872E-2,5.894844979E-2,-5.574141163E-3
3.353652886E0,-4.444041103E-2,4.199695215E-2,-6.643154658E-3
3.373116427E0,-3.543015569E-2,2.504545636E-2,-2.061668551E-3
3.392577677E0,-1.069013402E-2,1.863137633E-2,3.588830587E-3
3.412041219E0,1.450803876E-2,1.756236330E-2,5.421424750E-3
3.431502469E0,3.039052337E-2,1.588248461E-2,4.657844082E-3
3.450966011E0,3.375028074E-2,7.788525894E-3,7.635809743E-5
3.470427261E0,2.809977904E-2,-9.468403645E-3,-4.352411721E-3
3.489890907E0,2.153298259E-2,-3.191768378E-2,-6.032289471E-3
3.509352052E0,2.519817278E-2,-5.436696485E-2,-6.185005885E-3
3.528815698E0,4.612028971E-2,-7.192932814E-2,-5.268708803E-3
3.548276844E0,6.750056148E-2,-8.628465235E-2,-9.239329956E-3
3.567740490E0,8.048143238E-2,-9.880737960E-2,-1.718057133E-2
3.587201636E0,7.651081681E-2,-1.079703495E-1,-2.374736778E-2
3.606665282E0,5.528326333E-2,-1.056796089E-1,-2.970330045E-2
3.626126427E0,2.871064469E-2,-9.239330143E-2,-3.856083751E-2
3.645590073E0,2.000582218E-2,-7.360920310E-2,-5.459604040E-2
3.665051219E0,3.649916872E-2,-7.299833745E-2,-6.284271181E-2
3.684514865E0,6.001746282E-2,-9.025526792E-2,-5.505418777E-2
3.703976115E0,6.612611562E-2,-1.053741723E-1,-4.207331315E-2
3.723439657E0,5.467239767E-2,-9.651663154E-2,-3.168861195E-2
3.742900907E0,3.649916872E-2,-7.177661359E-2,-3.214675933E-2
3.762364448E0,2.718348242E-2,-7.712167501E-2,-4.008800164E-2
3.781825698E0,3.115410358E-2,-9.132428467E-2,-4.604393244E-2
3.801289240E0,3.634645417E-2,-9.300415963E-2,-4.894553870E-2
3.820750490E0,3.008509055E-2,-8.674279600E-2,-4.848739132E-2
3.840214032E0,2.107483521E-2,-7.666353136E-2,-4.665479809E-2
3.859675282E0,2.367101051E-2,-7.116574794E-2,-4.787652567E-2
3.879138823E0,3.741546720E-2,-6.734783947E-2,-4.757109284E-2
3.898600073E0,4.428769648E-2,-5.650499091E-2,-4.360047355E-2
3.918063615E0,3.329212964E-2,-4.123337194E-2,-4.253146052E-2
3.937524865E0,2.336557768E-2,-2.336557768E-2,-4.192059487E-2
3.956988407E0,2.199113183E-2,-1.267544460E-2,-3.917170316E-2
3.976449657E0,2.061668597E-2,-2.443459118E-3,-3.367391974E-2
3.995913302E0,8.552107029E-3,1.038470119E-2,-2.924515121E-2
4.015374448E0,-1.267544460E-2,3.207040206E-2,-3.260490671E-2
4.034838094E0,-2.718348242E-2,5.283980444E-2,-4.237874225E-2
4.054299240E0,-2.855792828E-2,6.841685623E-2,-4.696023092E-2
4.073762886E0,-2.260199748E-2,6.994401664E-2,-4.283689335E-2
4.093224032E0,-1.985310577E-2,6.093376130E-2,-3.672824427E-2
4.112687677E0,-2.382372692E-2,4.886918142E-2,-3.443750367E-2
4.132148823E0,-2.916879393E-2,4.428769648E-2,-3.672824427E-2
4.151612469E0,-3.649916872E-2,4.749473557E-2,-4.039343446E-2
4.171073615E0,-3.695731983E-2,5.421425030E-2,-4.558578506E-2
4.190537261E0,-4.276053607E-2,4.673115537E-2,-4.818195850E-2
4.209998407E0,-5.635227636E-2,4.001164436E-2,-5.490147322E-2
4.229462052E0,-6.017018110E-2,2.458730713E-2,-6.146826968E-2
4.248923302E0,-4.795288667E-2,1.679878123E-2,-5.826122686E-2
4.268386844E0,-4.764745384E-2,1.618791744E-2,-5.841394514E-2
4.287848094E0,-6.078104675E-2,1.282816008E-2,-7.047852129E-2
4.307311636E0,-6.902772188E-2,4.428769462E-3,-7.383827865E-2
4.326772886E0,-8.307760954E-2,4.276053514E-3,-6.253728271E-2
4.346236427E0,-1.030834317E-1,-8.704823442E-3,-6.360629201E-2
4.365697133E0,-1.165224537E-1,-3.451386094E-2,-8.254310489E-2
4.385160675E0,-1.185077652E-1,-5.390881747E-2,-1.011744812E-1
4.404621925E0,-1.139262840E-1,-7.269290835E-2,-9.918916970E-2
4.424085467E0,-1.192713454E-1,-8.384118974E-2,-8.666644245E-2
4.443546717E0,-1.186604798E-1,-8.704823256E-2,-8.422297984E-2
4.463010258E0,-1.064431891E-1,-8.979712427E-2,-8.743002266E-2
4.482471508E0,-9.407317638E-2,-1.015562713E-1,-8.636100590E-2
4.501935050E0,-7.819069177E-2,-1.269071549E-1,-8.376483619E-2
4.521396300E0,-5.070177838E-2,-1.450803876E-1,-7.735075057E-2
4.540859842E0,-9.010255337E-3,-1.264490038E-1,-6.436987966E-2
4.560321092E0,2.901607752E-2,-7.376192510E-2,-5.658135191E-2
4.579784633E0,5.024362728E-2,-2.061668597E-2,-6.268999726E-2
4.599245883E0,5.436696485E-2,9.621120058E-3,-6.360629201E-2
4.618709529E0,4.627300799E-2,1.466075517E-2,-6.223184988E-2
4.638170675E0,4.276053607E-2,7.941242307E-3,-5.306887627E-2
4.657634321E0,5.192350596E-2,-1.954767294E-2,-3.031416424E-2
4.677095467E0,5.955931544E-2,-3.023780696E-2,-9.086613543E-3
4.696559113E0,5.360338464E-2,-2.015853859E-2,1.153007243E-2
4.716020258E0,4.199695215E-2,1.267544460E-2,2.985601686E-2
4.735483904E0,2.916879393E-2,7.086031139E-2,4.115701467E-2
4.754945050E0,2.367101051E-2,1.079703495E-1,4.604393244E-2
4.774408696E0,3.604102135E-2,1.162170246E-1,6.559160352E-2
4.793869842E0,6.566796452E-2,1.096502244E-1,9.750928730E-2
4.813333488E0,9.422589093E-2,8.659008145E-2,1.263726503E-1
4.832794738E0,1.088866442E-1,5.222893879E-2,1.300378442E-1
4.852258279E0,1.052214578E-1,2.794706449E-2,1.030070707E-1
4.871719529E0,8.674279600E-2,2.993237413E-2,5.765036494E-2
4.891183071E0,6.001746282E-2,5.757400393E-2,2.802342176E-2
4.910644321E0,4.031707719E-2,8.765909821E-2,2.634354308E-2
4.930107863E0,4.199695215E-2,1.014035568E-1,3.459021822E-2
4.949569113E0,6.811141968E-2,8.979712427E-2,4.100430012E-2
4.969032654E0,1.050687432E-1,5.711585656E-2,5.031998456E-2
4.988493904E0,1.250745654E-1,3.054323979E-2,5.887209252E-2
5.007957446E0,1.134681329E-1,3.176496923E-2,6.024653837E-2
5.027418696E0,8.872810751E-2,5.543597788E-2,4.955640435E-2
5.046882238E0,7.330377400E-2,8.139773458E-2,3.917170316E-2
5.066343488E0,6.276635826E-2,1.024725661E-1,4.329504073E-2
5.085807029E0,4.718930274E-2,1.148425788E-1,5.047270283E-2
5.105268279E0,3.558287397E-2,1.151480079E-1,5.062541738E-2
5.124731925E0,3.115410358E-2,1.049160287E-1,5.077813566E-2
5.144193071E0,2.718348242E-2,8.643736690E-2,5.413788930E-2
5.163656717E0,2.474002354E-2,6.826414168E-2,5.612320080E-2
5.183117863E0,2.779434808E-2,4.505127668E-2,5.566505343E-2
5.202581508E0,3.497200832E-2,3.222311661E-2,5.688678101E-2
5.222042654E0,4.260781780E-2,3.543015569E-2,5.642863363E-2
5.241506300E0,5.161807314E-2,3.894263133E-2,5.826122686E-2
5.260967446E0,6.475166976E-2,3.497200832E-2,6.360629201E-2
5.280431092E0,7.895427197E-2,2.168569900E-2,6.971494108E-2
5.299892342E0,9.315688163E-2,5.345067009E-3,7.399099320E-2
5.319355883E0,1.026252806E-1,-1.603520103E-2,7.414371520E-2
5.338817133E0,1.090393662E-1,-3.084867075E-2,7.444914430E-2
5.358280675E0,1.111773923E-1,-4.092793912E-2,7.414371520E-2
5.377741925E0,1.061377525E-1,-4.703658819E-2,7.154753804E-2
5.397205467E0,1.012508348E-1,-4.566214234E-2,7.215840369E-2
5.416666717E0,1.018617004E-1,-3.619373962E-2,7.368556410E-2
5.436130258E0,1.148425788E-1,-2.840521187E-2,7.597630471E-2
5.455591508E0,1.256854236E-1,-2.382372692E-2,8.254310489E-2
5.475055050E0,1.233946830E-1,-2.076940238E-2,8.987347782E-2
5.494516300E0,1.180496216E-1,-1.191186346E-2,9.369138628E-2
5.513979842E0,1.162170246E-1,-8.093958721E-3,9.262236953E-2
5.533441092E0,1.171333194E-1,-1.145371422E-2,8.773545176E-2
5.552904738E0,1.171333194E-1,-1.878409274E-2,8.376483619E-2
5.572365883E0,1.165224537E-1,-2.107483521E-2,8.391755074E-2
5.591829529E0,1.137735620E-1,-9.162971750E-3,9.033162892E-2
5.611290675E0,1.159115955E-1,1.679878100E-3,9.659299254E-2
5.630754321E0,1.246164143E-1,1.527161920E-3,9.506583214E-2
5.650215467E0,1.284343153E-1,-1.481347065E-2,8.972076327E-2
5.669679113E0,1.256854236E-1,-3.726275265E-2,9.170607477E-2
5.689140258E0,1.206457913E-1,-3.909534588E-2,1.112537459E-1
5.708603904E0,1.227838174E-1,-3.619373962E-2,1.228601784E-1
5.728065154E0,1.388190240E-1,-5.360338464E-2,1.251509190E-1
5.747528696E0,1.565341055E-1,-7.391463965E-2,1.327867359E-1
5.766989946E0,1.589775532E-1,-7.757982612E-2,1.419496983E-1
5.786453488E0,1.588248461E-1,-7.024945319E-2,1.492800862E-1
5.805914738E0,1.598938555E-1,-6.719512492E-2,1.582903415E-1
5.825378279E0,1.547015011E-1,-7.024945319E-2,1.621082425E-1
5.844839529E0,1.464548260E-1,-6.918043643E-2,1.538615674E-1
5.864303071E0,1.288924664E-1,-6.047561392E-2,1.379790753E-1
5.883764321E0,8.994983882E-2,-6.246092543E-2,1.292742640E-1
5.903227863E0,3.466657549E-2,-5.467239767E-2,1.214857325E-1
5.922689113E0,-1.359174121E-2,-2.275471389E-2,1.056032479E-1
5.942152758E0,-5.253437161E-2,1.878409274E-2,7.322741300E-2
5.961613904E0,-8.307760954E-2,5.711585656E-2,2.756527252E-2
5.981077550E0,-1.014035568E-1,7.330377400E-2,-3.436114406E-3
6.000538696E0,-1.081230640E-1,5.177079141E-2,-1.061377581E-2
6.020002342E0,-9.926552325E-2,1.710421406E-2,-1.382081583E-2
6.039463488E0,-8.536835015E-2,7.483093534E-3,-3.107774630E-2
6.058927133E0,-8.048143238E-2,2.580903657E-2,-6.207913160E-2
6.078388383E0,-9.651663154E-2,4.337139800E-2,-8.941533417E-2
6.097851925E0,-1.191186309E-1,5.619955808E-2,-1.016326249E-1
6.117313175E0,-1.459966749E-1,6.582067907E-2,-9.812015295E-2
6.136776717E0,-1.707367003E-1,5.635227636E-2,-9.048434347E-2
6.156237967E0,-1.829539984E-1,4.932733253E-2,-9.185878932E-2
6.175701508E0,-1.744018942E-1,4.260781780E-2,-9.567669779E-2
6.195162758E0,-1.670715213E-1,2.306014486E-2,-9.033162892E-2
6.214626300E0,-1.765399277E-1,-1.374445739E-3,-8.972076327E-2
6.234087550E0,-1.823431402E-1,-1.557705179E-2,-1.004109010E-1
6.253551196E0,-1.760817766E-1,-2.015853859E-2,-1.051450968E-1
6.273012342E0,-1.588248461E-1,-1.267544460E-2,-9.857830405E-2
6.292475988E0,-1.330158114E-1,-2.748891478E-3,-8.376483619E-2
6.311937133E0,-1.194240674E-1,4.581485875E-3,-6.711876392E-2
6.331400779E0,-1.273653060E-1,5.955931731E-3,-6.223184988E-2
6.350861925E0,-1.330158114E-1,3.054323839E-3,-7.139482349E-2
6.370325571E0,-1.267544478E-1,-1.527161949E-4,-7.338013500E-2
6.389786821E0,-1.101083755E-1,-8.093958721E-3,-6.207913160E-2
6.409250363E0,-9.834922850E-2,-8.246674202E-3,-4.802924395E-2
6.428711613E0,-8.888082206E-2,-7.941242307E-3,-4.390590638E-2
6.448175154E0,-7.895427197E-2,-2.000582218E-2,-4.497491941E-2
6.467636404E0,-7.254019380E-2,-3.298669681E-2,-4.726566374E-2
6.487099946E0,-7.131846249E-2,-3.497200832E-2,-4.787652567E-2
6.506561196E0,-7.299833745E-2,-2.504545636E-2,-4.543306679E-2
6.526024738E0,-6.872228533E-2,-6.108647678E-3,-3.962985426E-2
6.545485988E0,-5.283980444E-2,5.650499370E-3,-3.733910993E-2
6.564949633E0,-3.527744114E-2,4.276053514E-3,-3.382663801E-2
6.584410779E0,-2.794706449E-2,-4.581485991E-4,-2.848157100E-2
6.603874425E0,-2.626718581E-2,-6.261364091E-3,-2.527453005E-2
6.623335571E0,-2.367101051E-2,-9.468403645E-3,-2.054032870E-2
6.642799217E0,-1.740964688E-2,3.970621154E-3,-1.611155830E-2
6.662260363E0,-1.649334840E-2,1.970038936E-2,-1.504254527E-2
6.681724008E0,-1.695149764E-2,1.695149764E-2,-1.840230078E-2
6.701185258E0,-9.162971750E-3,8.857538924E-3,-2.222020552E-2
6.720648800E0,-4.581485875E-3,-3.359756200E-3,-2.283107117E-2
6.740110050E0,-7.177661173E-3,-1.053741761E-2,-2.084576152E-2
6.759573592E0,-1.160643063E-2,-1.679878100E-3,-2.176205814E-2
6.779034842E0,-9.926552884E-3,1.572976820E-2,-2.588539571E-2
6.798498383E0,-1.527161920E-3,2.367101051E-2,-2.787070535E-2
6.817959633E0,1.985310577E-3,2.764163166E-2,-2.557996288E-2
6.837423175E0,3.054323839E-3,3.268126398E-2,-2.115119249E-2
6.856884425E0,5.803215317E-3,3.420842811E-2,-1.855501719E-2
6.876348071E0,1.725693047E-2,2.764163166E-2,-1.870773360E-2
6.895809217E0,3.161225095E-2,2.428187430E-2,-1.565340906E-2
6.915272863E0,3.878991306E-2,2.153298259E-2,-1.214093715E-2
6.934734008E0,3.420842811E-2,1.145371422E-2,-1.107192412E-2
6.954197654E0,2.504545636E-2,5.497782957E-3,-1.290451828E-2
6.973658904E0,1.893680729E-2,1.404988952E-2,-1.458439697E-2
6.993122446E0,1.832594350E-2,2.748891525E-2,-1.733328775E-2
7.012583696E0,1.970038936E-2,4.688387364E-2,-2.008217946E-2
7.032047238E0,2.428187430E-2,5.054906011E-2,-1.916588284E-2
7.051508488E0,2.428187430E-2,5.268708616E-2,-1.580612548E-2
7.070972029E0,1.939495653E-2,6.185005978E-2,-1.153007243E-2
7.090433279E0,1.664606482E-2,5.345066637E-2,-1.015562657E-2
7.109896821E0,1.450803876E-2,5.390881747E-2,-9.850194678E-3
7.129358071E0,1.557705179E-2,6.520981342E-2,-1.000291109E-2
7.148821717E0,1.496618707E-2,8.109229803E-2,-1.214093715E-2
7.168282863E0,1.802051067E-2,8.888082206E-2,-1.550069358E-2
7.187746508E0,2.367101051E-2,7.635809481E-2,-1.397353224E-2
7.207207654E0,1.985310577E-2,5.406153202E-2,-4.963276442E-3
7.226671300E0,1.252272818E-2,4.948004708E-2,-1.450803829E-3
7.246132446E0,2.046396956E-2,4.489856213E-2,-3.436114406E-3
7.265596092E0,3.359756246E-2,3.313941509E-2,-6.643154658E-3
7.285057342E0,3.451386094E-2,1.404988952E-2,-5.726857111E-3
7.304520883E0,1.924224012E-2,2.443459118E-3,-3.588830587E-3
7.323982133E0,2.748891478E-3,-9.468403645E-3,-2.825249685E-3
7.343445675E0,-5.650499370E-3,-1.221729536E-2,-3.588830587E-3
7.362906925E0,-9.315688163E-3,-4.734201822E-3,-4.352411721E-3
7.382370467E0,-6.719512399E-3,3.665188793E-3,-4.046979360E-3
7.401831717E0,-5.650499370E-3,1.695149764E-2,-1.908952487E-3
7.421295363E0,-5.039634649E-3,3.420842811E-2,1.450803829E-3
7.440756508E0,-5.345067009E-3,3.069595434E-2,6.795870606E-3
7.460220154E0,-7.024944760E-3,1.420260593E-2,1.397353224E-2
7.479681300E0,-3.665188793E-3,-2.138026757E-3,1.626427472E-2
7.499144946E0,5.803215317E-3,-1.084284950E-2,1.091920771E-2
7.518606092E0,9.010255337E-3,-1.389717404E-2,6.795870606E-3
7.538069738E0,3.359756200E-3,-4.276053514E-3,5.879573524E-3
7.557530988E0,-5.192350596E-3,-4.276053514E-3,3.436114406E-3
7.576994529E0,-7.635809947E-3,-2.183841541E-2,2.825249685E-3
7.596455779E0,-1.359174121E-2,-3.940077871E-2,3.817904799E-4
7.615919321E0,-2.641990222E-2,-5.283980444E-2,-3.283398226E-3
7.635380571E0,-3.298669681E-2,-6.398808211E-2,-7.406735327E-3
7.654844113E0,-2.901607752E-2,-7.070759684E-2,-1.091920771E-2
7.674305363E0,-2.489273995E-2,-5.894844979E-2,-1.275180187E-2
7.693769008E0,-2.932151034E-2,-2.596175298E-2,-1.534797717E-2
7.713230154E0,-4.550942779E-2,7.177661173E-3,-1.595884189E-2
7.732693800E0,-5.742128938E-2,3.420842811E-2,-1.397353224E-2
7.752154946E0,-4.474584386E-2,3.451386094E-2,-9.086613543E-3
7.771618592E0,-1.435532235E-2,2.718348242E-2,5.345066893E-4
7.791079842E0,1.710421406E-2,2.641990222E-2,6.643154658E-3
7.810543383E0,3.222311661E-2,2.321286127E-2,8.475748822E-3
7.830004633E0,3.100138716E-2,3.329212964E-2,9.239329956E-3
7.849468175E0,2.764163166E-2,4.566214234E-2,8.017600514E-3
7.868929425E0,2.855792828E-2,3.940077871E-2,7.406735327E-3
7.888392967E0,3.176496923E-2,2.947422490E-2,5.879573524E-3
7.907854217E0,2.886336111E-2,2.977965772E-2,4.657844082E-3
7.927317863E0,2.351829410E-2,4.489856213E-2,6.795870606E-3
7.946779008E0,2.122755162E-2,6.673697382E-2,6.643154658E-3
7.966242654E0,3.466657549E-2,9.666935354E-2,5.726857111E-3
7.985703800E0,5.742128938E-2,1.059850380E-1,8.475748822E-3
8.005167446E0,7.345648855E-2,9.880737960E-2,1.137735695E-2
8.024628696E0,8.460476995E-2,8.903354406E-2,1.259908639E-2
8.044092238E0,9.040798992E-2,7.727439702E-2,1.183550525E-2
8.063553488E0,8.918625861E-2,7.177661359E-2,9.850194678E-3
8.083017029E0,8.307760954E-2,7.024945319E-2,9.239329956E-3
8.102478279E0,7.651081681E-2,6.062832847E-2,1.061377581E-2
8.121941821E0,7.238747925E-2,4.856374860E-2,1.000291109E-2
8.141403071E0,6.627883017E-2,3.711003438E-2,8.933897130E-3
8.160866717E0,5.054906011E-2,2.809977904E-2,8.628465235E-3
8.180327863E0,3.390299529E-2,1.924224012E-2,1.168278884E-2
8.199791508E0,2.382372692E-2,8.704823442E-3,1.443168055E-2
8.219252654E0,1.618791744E-2,4.428769462E-3,1.748600416E-2
8.238716300E0,5.192350596E-3,8.552107029E-3,1.855501719E-2
8.258177550E0,-1.374445739E-3,1.435532235E-2,1.824958436E-2
8.277641092E0,-5.192350596E-3,2.412915789E-2,1.718057133E-2
8.297102342E0,-7.941242307E-3,3.039052337E-2,1.198822167E-2
8.316565883E0,-6.261364091E-3,2.871064469E-2,8.628465235E-3
8.336027133E0,1.069013379E-3,2.061668597E-2,6.795870606E-3
8.355490675E0,3.665188793E-3,-1.221729559E-3,5.268708803E-3
8.374951925E0,1.679878100E-3,-3.237583488E-2,5.879573524E-3
8.394415571E0,2.748891478E-3,-6.215549260E-2,4.505127668E-3
8.413876717E0,5.192350596E-3,-8.124501258E-2,5.421424750E-3
8.433340363E0,7.330377586E-3,-8.735366166E-2,6.948587019E-3
8.452801508E0,1.374445762E-2,-8.964440972E-2,3.894262947E-3
8.472265154E0,2.260199748E-2,-9.926552325E-2,6.032289471E-3
8.491726404E0,2.687804960E-2,-9.376774728E-2,8.170315996E-3
8.511189946E0,2.229656465E-2,-8.384118974E-2,4.505127668E-3
8.530651196E0,1.817322709E-2,-8.491020650E-2,2.214384731E-3
8.550114738E0,1.679878123E-2,-8.765909821E-2,2.061668551E-3
8.569575988E0,9.621120058E-3,-9.285144508E-2,2.519817324E-3
8.589039529E0,-5.192350596E-3,-1.036942974E-1,2.977965865E-3
8.608500779E0,-1.863137633E-2,-1.295033395E-1,1.046105940E-2
8.627964425E0,-2.306014486E-2,-1.740964651E-1,1.427896414E-2
8.647425571E0,-1.893680729E-2,-1.884517819E-1,5.726857111E-3
8.666889217E0,-1.084284950E-2,-1.429423541E-1,-2.977965865E-3
8.686350467E0,-1.450803876E-2,-9.834922850E-2,-6.032289471E-3
8.705814008E0,-2.641990222E-2,-8.048143238E-2,-3.894262947E-3
8.725275258E0,-2.932151034E-2,-8.338304609E-2,3.894262947E-3
8.744738800E0,-1.328630932E-2,-8.475748450E-2,6.032289471E-3
8.764200050E0,9.773836471E-3,-7.742711157E-2,5.879573524E-3
8.783663592E0,1.175914705E-2,-6.750056148E-2,5.115992390E-3
8.803124842E0,-1.130099874E-2,-6.154462695E-2,6.795870606E-3
8.822588488E0,-4.214967042E-2,-5.482511222E-2,3.588830587E-3
8.842049633E0,-5.986474827E-2,-3.481929377E-2,-4.199695308E-3
8.861513279E0,-5.513054505E-2,-7.635809947E-3,-1.091920771E-2
8.880974425E0,-4.428769648E-2,1.893680729E-2,-1.214093715E-2
8.900438071E0,-3.405570984E-2,3.802633286E-2,-9.850194678E-3
8.919899321E0,-2.275471389E-2,4.199695215E-2,-5.421424750E-3
8.939362863E0,-1.145371422E-2,3.130681813E-2,-1.603520010E-3
8.958824113E0,-6.414080039E-3,2.397644334E-2,-4.505127668E-3
8.978287654E0,-8.552107029E-3,2.214384824E-2,-3.894262947E-3
8.997748904E0,-1.542433538E-2,1.985310577E-2,-4.505127668E-3
9.017212550E0,-2.458730713E-2,2.382372692E-2,-4.046979360E-3
9.036673696E0,-3.069595434E-2,3.436114267E-2,-2.214384731E-3
9.056137342E0,-1.954767294E-2,3.405570984E-2,3.894262947E-3
9.075598592E0,3.817904973E-3,2.641990222E-2,1.107192412E-2
9.095062133E0,2.428187430E-2,1.924224012E-2,1.473711245E-2
9.114523383E0,2.977965772E-2,8.552107029E-3,1.244636998E-2
9.133986925E0,2.290742844E-2,4.581485875E-3,8.781181648E-3
9.153448175E0,1.298087649E-2,-7.635809598E-4,7.101302966E-3
9.172911717E0,1.328630932E-2,-5.345067009E-3,8.170315996E-3
9.192372967E0,2.412915789E-2,-7.941242307E-3,1.076649129E-2
9.211836613E0,3.298669681E-2,-1.466075517E-2,1.290451828E-2
9.231297758E0,3.145953640E-2,-2.687804960E-2,1.046105940E-2
9.250761404E0,2.382372692E-2,-3.573558852E-2,7.406735327E-3
9.270222654E0,1.298087649E-2,-3.665188700E-2,2.825249685E-3
9.289686196E0,7.635809598E-4,-2.626718581E-2,-9.926552884E-4
9.309147446E0,-1.145371422E-2,-2.351829410E-2,-3.130682046E-3
9.328610988E0,-2.275471389E-2,-3.084867075E-2,-1.756236190E-3
9.348072238E0,-3.023780696E-2,-3.634645417E-2,-1.756236190E-3
9.367535883E0,-2.962694131E-2,-3.711003438E-2,-5.115992390E-3
9.386997029E0,-2.641990222E-2,-3.649916872E-2,-5.879573524E-3
9.406460675E0,-2.718348242E-2,-3.039052337E-2,-3.130682046E-3
9.425921925E0,-2.733619884E-2,-3.451386094E-2,-1.298087649E-3
9.445385467E0,-2.214384824E-2,-4.108065739E-2,2.290742996E-4
9.464846717E0,-2.351829410E-2,-3.069595434E-2,-8.399390499E-4
9.484310258E0,-3.298669681E-2,-2.260199748E-2,-3.130682046E-3
9.503771508E0,-3.222311661E-2,-2.168569900E-2,-1.298087649E-3
9.523235154E0,-1.572976820E-2,-2.031125315E-2,1.450803829E-3
9.542696300E0,-4.428769462E-3,-1.817322709E-2,1.298087649E-3
9.562159946E0,-4.734201822E-3,-1.695149764E-2,-1.145371469E-3
9.581621092E0,-1.038470119E-2,-1.282816008E-2,-2.977965865E-3
9.601084738E0,-1.679878123E-2,-1.221729559E-3,-3.436114406E-3
9.620545988E0,-2.076940238E-2,-1.527161920E-3,-2.825249685E-3
9.640009529E0,-1.328630932E-2,-2.183841541E-2,-6.872228696E-4
9.659470779E0,4.886918236E-3,-4.780016840E-2,2.825249685E-3
9.678934321E0,1.832594350E-2,-6.704241037E-2,2.825249685E-3
9.698395571E0,1.389717404E-2,-7.757982612E-2,-3.894262947E-3
9.717859217E0,-1.069013379E-3,-8.429934084E-2,-1.397353224E-2
9.737320363E0,-1.175914705E-2,-7.254019380E-2,-1.626427472E-2
9.756784008E0,-1.389717404E-2,-5.772672221E-2,-1.305723470E-2
9.776245258E0,-8.552107029E-3,-5.070177838E-2,-7.712167688E-3
9.795708800E0,-4.734201822E-3,-3.573558852E-2,7.635809743E-5
9.815170050E0,-5.039634649E-3,-1.191186346E-2,1.908952487E-3
9.834633592E0,-1.374445739E-3,-2.290742937E-3,-2.367100911E-3
9.854094842E0,-4.734201822E-3,-5.345067009E-3,-3.588830587E-3
9.873558488E0,-1.404988952E-2,2.443459118E-3,-3.283398226E-3
9.893019633E0,-2.092211880E-2,-3.970621154E-3,-1.908952487E-3
9.912483279E0,-2.183841541E-2,-1.282816008E-2,-1.908952487E-3
9.931944529E0,-1.221729536E-2,-1.328630932E-2,-2.672533505E-3
9.951408071E0,3.817904973E-3,-1.557705179E-2,-3.741546767E-3
9.970869321E0,1.175914705E-2,-2.550360374E-2,-2.672533505E-3
9.990332863E0,5.039634649E-3,-3.497200832E-2,-1.908952487E-3
1.000979411E1,-6.261364091E-3,-5.268708616E-2,1.298087649E-3
1.002925776E1,-7.635809947E-3,-6.643154472E-2,3.130682046E-3
1.004871890E1,-4.123337101E-3,-5.421425030E-2,-5.345066893E-4
1.006818255E1,-6.719512399E-3,-4.489856213E-2,-2.977965865E-3
1.008764380E1,-1.175914705E-2,-4.734202102E-2,-2.214384731E-3
1.010710734E1,-1.878409274E-2,-5.207622424E-2,8.399390499E-4
1.012656859E1,-2.000582218E-2,-5.925388262E-2,4.810560029E-3
1.014603213E1,-1.802051067E-2,-8.216131479E-2,2.825249685E-3
1.016549338E1,-1.130099874E-2,-1.156061590E-1,-2.367100911E-3
1.018495703E1,-4.123337101E-3,-1.794415265E-1,-6.948587019E-3
1.020441818E1,-2.061668597E-2,-2.481638193E-1,-1.473711245E-2
1.022388182E1,-6.047561392E-2,-3.174969554E-1,-2.405280061E-2
1.024334307E1,-9.392046183E-2,-3.978256881E-1,-2.466366626E-2
1.026280661E1,-1.062904745E-1,-4.463894367E-1,-1.580612548E-2
1.028226786E1,-9.071341902E-2,-4.767799675E-1,-2.367100911E-3
1.030173140E1,-4.321868345E-2,-5.354229808E-1,8.628465235E-3
1.032119265E1,-9.162971983E-4,-5.820014477E-1,1.091920771E-2
1.034065630E1,1.832594397E-3,-5.451968312E-1,-1.908952487E-3
1.036011745E1,-8.093958721E-3,-4.324922562E-1,-5.077813566E-2
1.037958109E1,-1.572976820E-2,-2.953531146E-1,-1.121700481E-1
1.039904234E1,-7.773254067E-2,-6.505709887E-2,-1.266780794E-1
1.041850588E1,-2.193004489E-1,1.359174121E-2,-9.155336022E-2
1.043796713E1,-3.785834610E-1,-1.056796089E-1,8.628465235E-3
1.045743068E1,-4.173733592E-1,-2.532034516E-1,1.103374511E-1
1.047689192E1,-3.153589368E-1,-1.032361463E-1,1.427132785E-1
1.049635557E1,-1.919642538E-1,5.664243698E-1,1.115591824E-1
1.051581672E1,-2.273944169E-1,9.256128669E-1,7.887791097E-2
1.053528036E1,-2.406807244E-1,4.952586293E-1,7.460185885E-2
1.055474161E1,3.207040019E-3,5.833758786E-2,1.015562657E-2
1.057420515E1,2.577849329E-1,1.562286615E-1,-1.202640012E-1
1.059366640E1,4.019490182E-1,3.575085998E-1,-2.077703774E-1
1.061313005E1,4.170679152E-1,2.669478953E-1,-2.134208828E-1
1.063259120E1,4.619664848E-1,7.941242307E-2,-1.112537459E-1
1.065205484E1,5.535961986E-1,1.220202371E-1,9.086613543E-3
1.067151609E1,5.879573226E-1,3.558287323E-1,3.688096255E-2
1.069097963E1,4.819723070E-1,5.016726851E-1,1.366809942E-2
1.071044088E1,2.722929716E-1,5.462658405E-1,-6.185005885E-3
1.072990442E1,5.100720748E-2,6.873756051E-1,-3.627009690E-2
1.074936568E1,-3.543015569E-2,6.721040010E-1,-4.405862093E-2
1.076882932E1,4.444041103E-2,4.144717455E-1,-2.191477455E-2
1.078829047E1,1.678351015E-1,2.193004489E-1,-2.802342176E-2
1.080775411E1,2.327394783E-1,9.193515033E-2,-6.620246917E-2
1.082721536E1,2.136499584E-1,2.840521187E-2,-1.505018175E-1
1.084667890E1,1.218675226E-1,1.450803876E-2,-2.233474404E-1
1.086614015E1,7.971785218E-2,8.857538924E-3,-2.149480432E-1
1.088560370E1,6.200277433E-2,1.786779426E-2,-1.366046369E-1
1.090506495E1,3.207040019E-3,5.192350596E-3,-5.673406646E-2
1.092452859E1,-2.367101051E-2,-5.681042373E-2,-4.802924395E-2
1.094398974E1,-6.368265301E-2,-8.338304609E-2,-1.234710440E-1
1.096345338E1,1.954767294E-2,-2.625191510E-1,-2.309832424E-1
1.098291453E1,4.599811733E-1,-8.148936033E-1,-8.177952468E-2
1.100237818E1,5.881100893E-1,-1.326492906E0,2.359465137E-2
1.102183943E1,-3.451386094E-2,-1.082299709E0,9.995274991E-2
1.104130297E1,-3.906480372E-1,1.287397593E-1,-3.657552972E-2
1.106076422E1,-4.401280880E-1,7.455604672E-1,7.750347257E-2
1.108022786E1,-2.866483033E-1,2.532034516E-1,2.842811942E-1
1.109968911E1,2.580903769E-1,-5.268708616E-2,4.792997837E-1
1.111915265E1,4.660898149E-1,2.780961990E-1,4.490619600E-1
1.113861390E1,3.262017965E-1,4.381427765E-1,3.772853613E-1
1.115807755E1,5.864302069E-2,3.995055556E-1,3.814086914E-1
1.117753870E1,-6.108647794E-4,4.917461574E-1,3.878227770E-1
1.119700234E1,6.444623321E-2,6.530144215E-1,3.568213880E-1
1.121646349E1,2.871064469E-2,5.856665969E-1,2.974147797E-1
1.123592713E1,-5.803215504E-2,4.056142271E-1,5.169443041E-2
1.125538838E1,-2.478583902E-1,4.940368831E-1,-2.763399482E-1
1.127485192E1,-3.065013885E-1,4.198168218E-1,-3.271944523E-1
1.129431318E1,-7.666353136E-2,-1.275180280E-1,-2.317468226E-1
1.131377672E1,2.535088956E-1,-5.835285783E-1,-1.379790753E-1
1.133323797E1,4.415025115E-1,-6.319395900E-1,-1.118646115E-1
1.135270161E1,4.098902643E-1,-3.005454838E-1,-1.013271958E-1
1.137216276E1,2.692386508E-1,1.015562713E-1,-1.046869531E-1
1.139162640E1,1.866191924E-1,3.167333901E-1,-9.827287495E-2
1.141108765E1,1.756236255E-1,4.057669342E-1,-9.369138628E-2
1.143055120E1,6.429351866E-2,4.537198246E-1,-1.460730433E-1
1.145001245E1,-1.725693047E-1,3.364337683E-1,-2.034943253E-1
1.146947599E1,-3.324631453E-1,-8.399390616E-3,-1.694386154E-1
1.148893724E1,-2.936732471E-1,-3.306305707E-1,-1.622609496E-1
1.150840088E1,-2.215912044E-1,-1.250898361E0,1.127809063E-1
1.152786203E1,-6.020072699E-1,-2.128863811E0,5.157989264E-1
1.154732568E1,-7.203623056E-1,-1.498756766E0,-2.683987021E-1
1.156678692E1,-6.520981342E-2,1.421024203E0,-1.595884189E-2
1.158625057E1,3.452913165E-1,1.843589902E0,1.631772518E-1
1.160571172E1,3.465130329E-1,7.874047160E-1,1.729510874E-1
1.162517536E1,4.005745649E-1,3.139844835E-1,1.601229310E-1
1.164463661E1,5.962040424E-1,3.035998046E-1,1.662315726E-1
1.166410015E1,5.968148708E-1,3.297142684E-1,1.146135032E-1
1.168356140E1,4.633409381E-1,4.622719288E-1,4.955640435E-2
1.170302505E1,3.524689674E-1,3.726275265E-1,-2.542724647E-2
1.172248620E1,2.295324355E-1,1.881463528E-1,-3.474293277E-2
1.174194984E1,1.924224012E-2,1.898262352E-1,-9.506583214E-2
1.176141099E1,-2.661843300E-1,3.729329407E-1,-1.793651730E-1
1.178087463E1,-5.050324798E-1,5.778780580E-1,-2.561814189E-1
1.180033588E1,-5.656607747E-1,5.007563829E-1,-2.829067409E-1
1.181979943E1,-5.439751148E-1,1.279761642E-1,-2.181550860E-1
1.183926068E1,-4.434878230E-1,-1.487455666E-1,-1.178205460E-1
1.185872422E1,-2.379318327E-1,-3.631591201E-1,-6.009382382E-2
1.187818547E1,-2.748891525E-2,-5.016726851E-1,-5.230529606E-2
1.189764911E1,1.053741723E-1,-4.531089365E-1,-8.605557680E-2
1.191711026E1,7.177661173E-3,-3.543015718E-1,-1.382845193E-1
1.193657390E1,-3.089448512E-1,-3.552178741E-1,-2.213621289E-1
1.195603515E1,-4.505127668E-1,-4.033234715E-1,-2.337321341E-1
1.197549870E1,-4.938841760E-1,-4.515817761E-1,-2.314413935E-1
1.199495995E1,-2.707658112E-1,-5.615374446E-1,-2.742019296E-1
1.201442349E1,1.372918636E-1,-8.451313972E-1,-1.990655661E-1
1.203388474E1,1.238528341E-1,-1.044426084E0,-3.601811528E-1
1.205334838E1,-1.441640854E-1,-1.308319688E0,-4.021781087E-1
1.207280963E1,5.543597788E-2,1.175914705E-2,-1.546251476E-1
1.209227318E1,3.265072107E-1,1.226921916E0,-1.458439697E-2
1.211173443E1,5.015199780E-1,8.772017956E-1,1.442404389E-1
1.213119807E1,4.628827870E-1,3.277289569E-1,2.850447893E-1
1.215065922E1,2.806923687E-1,1.912006736E-1,3.957640231E-1
1.217012286E1,4.795288667E-2,2.773326039E-1,4.313468933E-1
1.218958411E1,3.054323979E-2,4.080576599E-1,4.637227356E-1
1.220904765E1,9.285144508E-2,4.242455959E-1,4.928915203E-1
1.222850890E1,1.353065521E-1,2.759581506E-1,4.811323583E-1
1.224797245E1,8.399390616E-3,-1.229365394E-1,4.220311940E-1
1.226743370E1,-2.266308367E-1,-5.830704570E-1,3.365101218E-1
1.228689734E1,-3.475820720E-1,-4.550942481E-1,1.764635593E-1
1.230635849E1,-4.159989059E-1,-1.769980639E-1,1.336266659E-2
1.232582213E1,-3.827067912E-1,-2.167042792E-1,-1.847102344E-1
1.234528338E1,-2.364046723E-1,-5.042688847E-1,-2.961930633E-1
1.236474692E1,-7.544180006E-2,-5.632173419E-1,-3.488801420E-1
1.238420818E1,7.437278330E-2,-4.158461988E-1,-3.349829614E-1
1.240367172E1,1.823431402E-1,-2.012799382E-1,-2.716057599E-1
1.242313297E1,2.141081095E-1,-3.863719851E-2,-2.065486610E-1
1.244259661E1,1.409570426E-1,7.941242307E-2,-1.758527011E-1
1.246205776E1,-3.634645417E-2,7.559451461E-2,-1.859319657E-1
1.248152140E1,-2.353356630E-1,-9.789107740E-2,-2.155589163E-1
1.250098265E1,-3.123046160E-1,-4.021017551E-1,-1.472947747E-1
1.252044620E1,-2.283107042E-1,-1.010828495E0,1.076649129E-2
1.253990745E1,-2.528980076E-1,-1.730274439E0,1.624136716E-1
1.255937099E1,-5.453495383E-1,-2.335794210E0,2.425896823E-1
1.257883224E1,-4.726566374E-1,-8.265000582E-1,2.522107959E-1
1.259829588E1,2.915352285E-1,1.589622855E0,3.339139521E-1
1.261775713E1,7.234166265E-1,1.205083489E0,2.383136153E-1
1.263722068E1,5.395463109E-1,3.556760252E-1,6.101011857E-2
1.265668192E1,8.399390429E-2,2.348775119E-1,1.092684343E-1
1.267614557E1,-3.127627671E-1,2.768744528E-1,1.358410567E-1
1.269560682E1,-2.570213675E-1,3.269653618E-1,9.598212689E-2
1.271507036E1,2.733619809E-1,3.962985277E-1,6.681333482E-2
1.273453161E1,7.673988938E-1,2.913824916E-1,3.642281145E-2
1.275399515E1,8.613193631E-1,1.797469556E-1,1.185841262E-1
1.277345640E1,6.333140731E-1,1.408043355E-1,1.857792437E-1
1.279292005E1,2.287688553E-1,2.515235841E-1,1.288161129E-1
1.281238120E1,-2.541197538E-1,4.671588540E-1,-2.970330045E-2
1.283184484E1,-6.042979956E-1,4.773908257E-1,-1.935677826E-1
1.285130609E1,-6.149880886E-1,2.692386508E-1,-2.920697331E-1
1.287076963E1,-4.305069447E-1,-2.672533318E-2,-2.845866382E-1
1.289023088E1,-2.834412456E-1,-9.468404204E-2,-2.479347438E-1
1.290969453E1,-1.864664704E-1,-3.787361458E-2,-2.097556889E-1
1.292915568E1,-1.291978955E-1,-9.453132749E-2,-1.711184978E-1
1.294861932E1,-1.789833754E-1,-1.986837685E-1,-1.384372264E-1
1.296808057E1,-2.000582218E-1,-2.437350452E-1,-1.010217592E-1
1.298754411E1,-1.049160287E-1,-3.469711840E-1,-4.757109284E-2
1.300700536E1,-3.359756246E-2,-4.564687014E-1,-6.604975462E-2
1.302646890E1,-8.857538924E-3,-7.150171995E-1,-1.668424457E-1
1.304593015E1,8.888082206E-2,-1.114370108E0,-2.053269297E-1
1.306539380E1,1.589775532E-1,-1.447444081E0,-2.300669402E-1
1.308485505E1,1.128572673E-1,-1.143997073E0,-2.331212759E-1
1.310431859E1,1.840230078E-1,5.560396910E-1,-9.384410083E-2
1.312377984E1,1.432477981E-1,1.184008718E0,-5.169443041E-2
1.314324349E1,3.665188700E-2,3.946186602E-1,8.544471115E-2
1.316270463E1,-1.295033395E-1,-9.743293375E-2,2.659552395E-1
1.318216828E1,-2.840521336E-1,3.779725730E-1,4.453967810E-1
1.320162953E1,-2.982547283E-1,8.413135409E-1,4.910589159E-1
1.322109307E1,-2.191477418E-1,8.883501291E-1,3.869064748E-1
1.324055432E1,-1.863137633E-1,6.626355648E-1,2.402989268E-1
1.326001797E1,-1.379027218E-1,4.196641147E-1,1.914297491E-1
1.327947911E1,6.337722391E-2,2.112064958E-1,2.406043708E-1
1.329894276E1,2.096793354E-1,-2.168569900E-2,2.905425727E-1
1.331840401E1,6.551524997E-2,6.276635826E-2,2.241110206E-1
1.333786755E1,-2.405280024E-1,2.455676347E-1,6.467530876E-2
1.335732880E1,-4.123337269E-1,1.427896470E-1,-6.238456443E-2
1.337679245E1,-2.522871494E-1,-2.832885385E-1,-7.444914430E-2
1.339625359E1,5.604684353E-2,-5.717694163E-1,-6.207913160E-2
1.341571724E1,3.026835024E-1,-5.114465356E-1,-4.008800164E-2
1.343517849E1,3.912588954E-1,-2.376264036E-1,-3.596466407E-2
1.345464203E1,3.170388341E-1,2.260199748E-2,-5.291616172E-2
1.347410328E1,1.789833754E-1,1.968511790E-1,-5.658135191E-2
1.349356682E1,5.253437161E-2,1.299614757E-1,-4.696023092E-2
1.351302807E1,-9.621120244E-2,-2.539670467E-1,-3.657552972E-2
1.353249172E1,-2.787070572E-1,-8.735366464E-1,-4.283689335E-2
1.355195286E1,-5.141954422E-1,-1.491731763E0,-1.656970754E-2
1.357141651E1,-7.864884138E-1,-1.685223222E0,-4.100430012E-2
1.359087776E1,-8.376483321E-1,-1.977063894E0,-9.491311759E-2
1.361034140E1,-4.512763619E-1,1.322674990E0,1.794415340E-2
1.362980255E1,-2.773326039E-1,1.991113782E0,1.224020272E-1
1.364926620E1,1.429423541E-1,9.644027948E-1,4.497491941E-2
1.366872745E1,5.729911923E-1,2.322813272E-1,1.382081583E-2
1.368819109E1,7.388409376E-1,1.108719558E-1,-4.833467677E-2
1.370765224E1,6.270527244E-1,-3.054323839E-3,-6.360629201E-2
1.372711588E1,6.070469022E-1,3.674351573E-1,-3.733910993E-2
1.374657713E1,7.849612236E-1,7.096721530E-1,-6.666062027E-2
1.376604068E1,7.783944607E-1,6.123919487E-1,-1.016326249E-1
1.378550192E1,3.727802336E-1,5.787943676E-2,-1.224020272E-1
1.380496557E1,-6.414080411E-2,1.876882017E-1,-2.012035847E-1
1.382442672E1,-2.356410921E-1,4.952586293E-1,-3.207803667E-1
1.384389036E1,-1.023198515E-1,4.726566374E-1,-3.833940029E-1
1.386335161E1,1.240055487E-1,1.663079411E-1,-4.117992222E-1
1.388281515E1,2.165515572E-1,1.191186346E-2,-4.447859228E-1
1.390227640E1,1.426369250E-1,5.986474827E-2,-4.240165055E-1
1.392174005E1,2.855792828E-2,1.663079411E-1,-3.113119602E-1
1.394120120E1,-6.246092543E-2,1.600465775E-1,-1.845575273E-1
1.396066484E1,-1.324049383E-1,8.414662629E-2,-5.001455545E-2
1.398012609E1,-1.450803876E-1,6.887500733E-2,7.399099320E-2
1.399958963E1,-1.320995092E-1,-2.504545636E-2,1.468366235E-1
1.401905088E1,-1.244636998E-1,-3.811796308E-1,1.457676142E-1
1.403851442E1,-1.212566569E-1,-8.985821009E-1,6.620246917E-2
1.405797568E1,8.628465235E-2,-1.104596257E0,6.375901401E-2
1.407743932E1,3.144426346E-1,-1.438586593E0,1.679114550E-1
1.409690057E1,-1.093447953E-1,-1.762955785E0,3.908770978E-1
1.411636411E1,-1.001665473E0,-7.693842053E-1,1.668424457E-1
1.413582536E1,-7.397572398E-1,1.225089312E0,2.030361742E-1
1.415528901E1,-2.350302190E-1,8.610138893E-1,3.914879560E-1
1.417475026E1,-8.429934084E-2,3.811796308E-1,5.568795800E-1
1.419421380E1,-3.144426346E-1,3.068068326E-1,6.630173326E-1
1.421367505E1,-4.909825623E-1,3.933969140E-1,4.771617651E-1
1.423313870E1,-2.903134823E-1,5.801688433E-1,3.271944523E-1
1.425259995E1,1.382081509E-1,5.412262082E-1,3.065777719E-1
1.427206349E1,6.140718460E-1,2.179260105E-1,2.599993348E-1
1.429152474E1,5.966621637E-1,1.672242284E-1,1.141553521E-1
1.431098828E1,4.046979174E-2,3.287979662E-1,-1.030070707E-1
1.433044953E1,-3.129154742E-1,1.768453568E-1,-2.228892893E-1
1.434991318E1,-1.624900252E-1,-2.564104795E-1,-1.248454899E-1
1.436937442E1,2.557996213E-1,-5.477929711E-1,6.185005885E-3
1.438883797E1,6.039925218E-1,-6.308705807E-1,1.324812919E-1
1.440829922E1,6.919570565E-1,-5.503891706E-1,1.839466542E-1
1.442776286E1,5.836812854E-1,-3.373500705E-1,1.665370166E-1
1.444722401E1,4.271472096E-1,-1.443168074E-1,1.123227626E-1
1.446668765E1,3.694204688E-1,-9.117157012E-2,8.483384550E-2
1.448614890E1,4.364628792E-1,-1.450803876E-1,9.644027799E-2
1.450561245E1,4.401280880E-1,-2.321286201E-1,8.391755074E-2
1.452507370E1,1.953240186E-1,-2.686277926E-1,7.887791097E-2
1.454453734E1,-2.707658112E-1,-6.123919487E-1,1.062141135E-1
1.456399849E1,-1.296407819E0,-1.123380303E0,6.223184988E-2
1.458346213E1,-2.111759424E0,-2.659399748E0,-1.398116797E-1
1.460292338E1,-1.152396441E0,-1.278540015E0,2.209039778E-1
1.462238703E1,-3.242164850E-1,2.767981052E0,-8.834631741E-2
1.464184828E1,9.944878817E-1,2.589150429E0,-8.712458611E-2
1.466131182E1,1.067333460E0,6.356047988E-1,3.894262947E-3
1.468077307E1,6.872228980E-1,-3.955349326E-2,-6.849320978E-2
1.470023672E1,1.174387559E-1,-3.039052337E-2,-7.628174126E-2
1.471969797E1,-2.316704690E-1,3.906480372E-1,-1.399643868E-1
1.473916151E1,-3.408625424E-1,8.182533979E-1,-2.299142331E-1
1.475862276E1,-3.171915412E-1,7.218894362E-1,-1.848629564E-1
1.477808640E1,-2.255618125E-1,5.044215918E-1,-1.703549176E-1
1.479754765E1,-3.463603258E-1,3.811796308E-1,-2.129627317E-1
1.481701120E1,-6.820304990E-1,3.642281294E-1,-2.960403562E-1
1.483647245E1,-8.148936033E-1,2.298378795E-1,-2.920697331E-1
1.485593609E1,-6.811142564E-1,1.191186346E-2,-2.522107959E-1
1.487539724E1,-4.312705398E-1,-1.327103674E-1,-2.630536556E-1
1.489486088E1,-1.704312712E-1,-1.777616441E-1,-3.048978746E-1
1.491432213E1,6.322450191E-2,-7.116574794E-2,-3.482692838E-1
1.493378578E1,2.125809491E-1,1.232419685E-1,-3.467421234E-1
1.495324692E1,1.550069451E-1,1.603520066E-1,-2.961930633E-1
1.497271057E1,1.389717404E-2,5.345066637E-2,-2.476293147E-1
1.499217182E1,1.527161949E-4,-6.826414168E-2,-1.544724256E-1
1.501163536E1,7.620538026E-2,-1.536324918E-1,-1.650098413E-1
1.503109661E1,3.217730224E-1,-3.452913165E-1,-2.210566849E-1
1.505056026E1,3.475820720E-1,-6.708822250E-1,-4.724275470E-1
1.507002151E1,1.647807807E-1,-1.869093537E0,-4.311941862E-1
1.508948515E1,2.528980076E-1,-4.468475878E-1,-1.243873388E-1
1.510894630E1,6.236929297E-1,1.276096582E0,-2.021198869E-1
1.512840995E1,7.819069028E-1,6.895136237E-1,1.251509190E-1
1.514787120E1,1.104290843E0,-1.696676910E-1,5.985711217E-1
1.516733484E1,6.563742161E-1,-3.200931549E-1,7.300597429E-1
1.518679609E1,4.108065739E-2,1.583666950E-1,5.797870159E-1
1.520625963E1,-2.590066791E-1,7.493783832E-1,4.278344214E-1
1.522572088E1,-2.417497337E-1,8.009964228E-1,3.992764950E-1
1.524518453E1,-1.151480079E-1,1.582139730E-1,4.469239414E-1
1.526464578E1,2.229656465E-2,5.726857483E-2,3.838521540E-1
1.528410932E1,-3.543015569E-2,3.113883138E-1,2.120464295E-1
1.530357057E1,-2.086103261E-1,1.802051067E-1,3.642281145E-2
1.532303422E1,-2.261726856E-1,-3.446804583E-1,-3.031416424E-2
1.534249547E1,-1.272125840E-1,-6.879864335E-1,-6.314814836E-2
1.536195901E1,-6.185005978E-2,-5.510000587E-1,-1.639408320E-1
1.538142026E1,-1.166751757E-1,-1.828012913E-1,-2.633590698E-1
1.540088390E1,-2.376264036E-1,1.798996776E-1,-2.731329203E-1
1.542034515E1,-3.191768527E-1,3.593412042E-1,-1.717293561E-1
1.543980870E1,-2.194531709E-1,3.174969554E-1,-2.825249685E-3
1.545926995E1,-1.134681329E-1,9.086613357E-2,1.782961637E-1
1.547873359E1,-2.990183234E-1,-3.955349326E-2,2.662606835E-1
1.549819484E1,-5.490147471E-1,-1.105665267E-1,3.045924604E-1
1.551765838E1,-7.121156454E-1,-1.241888046E0,-2.070067972E-1
1.553711963E1,5.835285783E-1,-3.305389404E0,4.249328077E-1
1.555658328E1,1.251661897E0,8.830050230E-1,5.944477916E-1
1.557604453E1,1.459355950E0,1.287397504E0,8.452841640E-2
1.559550818E1,1.604283571E0,8.138245940E-1,-2.499200553E-1
1.561496943E1,1.398269534E0,1.637117565E-1,-3.224602342E-1
1.563443297E1,9.708168507E-1,-2.096793354E-1,-1.653152853E-1
1.565389422E1,7.110465765E-1,-2.191477418E-1,-3.107774630E-2
1.567335786E1,3.614792228E-1,1.429423541E-1,4.604393244E-2
1.569281911E1,-1.004872546E-1,6.615665555E-1,-2.878700197E-2
1.571228265E1,-4.897608459E-1,9.272927642E-1,-1.711184978E-1
1.573174390E1,-6.436987519E-1,8.526145220E-1,-1.865428388E-1
1.575120755E1,-6.201804876E-1,3.628536761E-1,-1.459203213E-1
1.577066880E1,-6.075050235E-1,6.032289565E-2,-1.376736462E-1
1.579013234E1,-5.997164845E-1,1.107192412E-1,-1.538615674E-1
1.580959359E1,-5.409207344E-1,1.684459597E-1,-1.106428802E-1
1.582905724E1,-3.147480786E-1,1.262962967E-1,-1.748600416E-2
1.584851849E1,-1.278234571E-1,4.917461425E-2,9.033162892E-2
1.586798213E1,-1.773035079E-1,-1.725693047E-2,6.742420048E-2
1.588744338E1,-1.724165827E-1,-4.917461425E-2,-1.641699113E-2
1.590690693E1,-7.101303339E-2,-8.093958721E-3,-9.445496649E-2
1.592636818E1,1.105665267E-1,-4.075995386E-1,-1.917351782E-1
1.594583182E1,6.615665555E-1,-1.216842651E0,-1.807396114E-1
1.596529307E1,6.789761782E-1,-1.505934358E0,-2.131154537E-1
1.598475672E1,1.771507859E-1,-5.871937871E-1,7.063124329E-2
1.600421797E1,2.049451321E-1,9.937242866E-1,-8.498656005E-2
1.602368151E1,1.774562150E-1,9.233221412E-1,4.925097153E-2
1.604314276E1,-3.695731983E-2,2.863428593E-1,2.456440032E-1
1.606260640E1,-1.901316643E-1,1.617264450E-1,4.585303664E-1
1.608206765E1,-4.065304995E-1,1.928805560E-1,5.617665052E-1
1.610153130E1,-4.925097227E-1,3.043633699E-1,4.078285992E-1
1.612099255E1,-4.161516428E-1,3.162752390E-1,3.291797638E-1
1.614045609E1,-2.968802750E-1,1.586721241E-1,3.485747278E-1
1.615991734E1,-1.379027218E-1,-4.642572254E-2,3.429242074E-1
1.617938099E1,6.719512399E-3,-1.643226296E-1,2.499200553E-1
1.619884224E1,-3.344484791E-2,-1.136208475E-1,3.016144782E-2
1.621830588E1,-1.055268943E-1,-2.283107042E-1,-1.301905513E-1
1.623776713E1,2.000582218E-2,-5.436696410E-1,-2.183077931E-1
1.625723068E1,2.064722925E-1,-6.670643687E-1,-1.889862865E-1
1.627669192E1,2.956585586E-1,-5.270236135E-1,-1.224020272E-1
1.629615557E1,2.875646055E-1,-3.223838806E-1,-4.619665071E-2
1.631561682E1,2.532034516E-1,-7.651081681E-2,5.016727000E-2
1.633508047E1,2.107483447E-1,1.185077652E-1,1.311068535E-1
1.635454161E1,1.682932526E-1,1.908952445E-1,1.404225379E-1
1.637400526E1,5.726857483E-2,1.744018942E-1,9.750928730E-2
1.639346651E1,-1.655443609E-1,8.506292105E-2,7.994692773E-2
1.641293015E1,-3.594939113E-1,-6.154462695E-2,2.878700197E-2
1.643239140E1,-6.739365458E-1,-6.177369952E-1,-2.496909723E-2
1.645185505E1,-1.353829026E0,-1.359937668E0,-2.589302957E-1
1.647131630E1,-1.161559343E0,-3.616472244E0,-3.094793558E-1
1.649077984E1,-1.496618707E-2,8.920152783E-1,8.132137358E-2
1.651024109E1,7.173079848E-1,2.679863691E0,-9.399681538E-2
1.652970474E1,1.310152292E0,1.244331598E0,-2.970330045E-2
1.654916599E1,1.445153356E0,-9.621120244E-2,1.611919403E-1
1.656862963E1,1.030681610E0,-1.947131455E-1,1.540142894E-1
1.658809088E1,2.512181401E-1,2.939786613E-1,7.353284955E-2
1.660755453E1,-1.269071549E-1,9.734130502E-1,-7.918334752E-2
1.662701578E1,-1.178968996E-1,1.088561058E0,-1.373682171E-1
1.664647943E1,1.281288862E-1,4.184423685E-1,-6.849320978E-2
1.666594068E1,3.836230934E-1,2.472475171E-1,-1.190422773E-1
1.668540422E1,2.635881603E-1,1.591302752E-1,-1.886808574E-1
1.670486547E1,1.069013379E-3,1.319467872E-1,-2.195295244E-1
1.672432911E1,-1.366809905E-1,-9.361502528E-2,-1.761581302E-1
1.674379036E1,-1.976147592E-1,-2.079994529E-1,-1.773798615E-1
1.676325401E1,-2.962694168E-1,-2.261726856E-1,-2.073122412E-1
1.678271526E1,-3.431532979E-1,-2.503018379E-1,-2.578612864E-1
1.680217880E1,-3.671297431E-1,-1.939495653E-1,-2.771035433E-1
1.682164005E1,-3.871355653E-1,-1.023198515E-1,-2.473238707E-1
1.684110370E1,-3.315468729E-1,-6.414080411E-2,-2.318995446E-1
1.686056495E1,-2.590066791E-1,-8.338304609E-2,-2.007454336E-1
1.688002859E1,-3.503309488E-1,-1.023198515E-1,-2.577085793E-1
1.689948984E1,-6.429351866E-2,-2.588539422E-1,-2.343430072E-1
1.691895349E1,2.616028488E-1,-6.469057798E-1,-1.813504845E-1
1.693841474E1,1.467602700E-1,-1.759137869E0,-1.795178801E-1
1.695787838E1,6.902772188E-2,-9.918916821E-1,-1.565340906E-2
1.697733963E1,2.260199748E-2,1.500742078E0,-2.793942690E-1
1.699680318E1,2.961167097E-1,1.506392598E0,-1.081994250E-1
1.701626453E1,9.216422439E-1,8.298597932E-1,4.719693959E-1
1.703572807E1,8.434515595E-1,1.295033395E-1,7.485384345E-1
1.705518932E1,2.419024557E-1,8.552107215E-2,5.854375362E-1
1.707465297E1,-1.227838174E-1,5.713112950E-1,3.614028692E-1
1.709411422E1,-3.107774556E-1,1.026405573E0,1.636354029E-1
1.711357786E1,-3.933969140E-1,1.041982651E0,1.443931609E-1
1.713303911E1,-4.066832364E-1,5.494728684E-1,2.457967103E-1
1.715250276E1,-2.538143098E-1,1.766926348E-1,2.917642891E-1
1.717196401E1,-1.701258421E-1,2.249509543E-1,2.008981556E-1
1.719142765E1,-2.316704690E-1,1.325576603E-1,3.642281145E-2
1.721088890E1,-2.115119249E-1,-2.240346521E-1,-7.032580674E-2
1.723035245E1,-1.452330947E-1,-5.215258002E-1,-1.349247545E-1
1.724981380E1,-8.979712427E-2,-5.870410800E-1,-2.506836355E-1
1.726927734E1,-9.407317638E-2,-4.242455959E-1,-3.627773225E-1
1.728873859E1,-2.086103261E-1,-1.322522312E-1,-4.069122970E-1
1.730820224E1,-3.498727977E-1,1.768453568E-1,-3.589594066E-1
1.732766349E1,-3.782780170E-1,2.528980076E-1,-2.558759749E-1
1.734712713E1,-3.087921441E-1,-5.497782957E-3,-1.474474818E-1
1.736658838E1,-3.329212964E-1,-4.109592736E-1,-1.482110620E-1
1.738605203E1,-4.760163724E-1,-9.709695578E-1,4.657844082E-3
1.740551328E1,-8.981239200E-1,-2.017686367E0,3.346775472E-1
1.742497693E1,-1.109483123E0,-2.621068001E0,-9.086613543E-3
1.744443818E1,-2.246455252E-1,-9.178243577E-2,3.504836559E-2
1.746390182E1,5.583304167E-1,1.612683058E0,7.536543906E-2
1.748336307E1,7.275399566E-1,1.338404775E0,2.283107117E-2
1.750282672E1,7.199041247E-1,3.938550651E-1,2.519817324E-3
1.752228797E1,1.120173335E0,1.049160287E-1,1.366809942E-2
1.754175161E1,9.553925395E-1,-2.046396956E-2,1.595884189E-2
1.756121286E1,5.331322551E-1,8.323032409E-2,1.498909444E-1
1.758067651E1,4.143190384E-1,2.924515009E-1,1.451567411E-1
1.760013776E1,2.964221239E-1,2.005163580E-1,9.094249457E-2
1.761960140E1,3.054323839E-3,-2.267835438E-1,4.466948658E-2
1.763906265E1,-2.173151523E-1,-2.845102847E-1,-9.460768104E-2
1.765852630E1,-2.599229515E-1,-1.021671370E-1,-1.963166744E-1
1.767798755E1,-1.957821548E-1,1.123991162E-1,-2.496146262E-1
1.769745120E1,-9.621120244E-2,1.153007299E-1,-2.709949017E-1
1.771691245E1,-1.463021189E-1,4.612028971E-2,-2.859610617E-1
1.773637609E1,-2.840521336E-1,-2.748891525E-2,-3.029125631E-1
1.775583734E1,-3.854556680E-1,-2.038761228E-1,-2.671769857E-1
1.777530099E1,-4.587594569E-1,-3.839285076E-1,-1.957058012E-1
1.779476224E1,-4.138608873E-1,-4.712821841E-1,-9.277509153E-2
1.781422578E1,-3.300196826E-1,-4.925097227E-1,2.367100911E-3
1.783368713E1,-2.608392537E-1,-5.551233888E-1,6.223184988E-2
1.785315068E1,-2.118173689E-1,-6.652317643E-1,6.803506613E-2
1.787261192E1,-1.820377111E-1,-7.848085165E-1,-1.840230078E-2
1.789207557E1,2.967275679E-1,-9.497420192E-1,-5.749764666E-2
1.791153692E1,7.521272302E-1,-1.413235664E0,-1.260672212E-1
1.793100047E1,2.078467458E-1,-1.451109290E0,-3.971384764E-1
1.795046182E1,-4.529562294E-1,5.389354229E-1,-1.072831303E-1
1.796992547E1,-1.174387559E-1,1.852905631E0,5.306887627E-2
1.798938672E1,4.899135530E-1,6.250674129E-1,1.778380126E-1
1.800885036E1,9.859357476E-1,-4.886918142E-2,3.937787116E-1
1.802831161E1,6.815723777E-1,2.742782831E-1,5.170207024E-1
1.804777526E1,-1.069013402E-2,7.835868001E-1,3.117701113E-1
1.806723651E1,-3.355174661E-1,1.043967962E0,1.393535286E-1
1.808670015E1,-2.099847645E-1,8.110756874E-1,1.856265366E-1
1.810616140E1,2.692386508E-1,3.139844835E-1,2.737437785E-1
1.812562505E1,6.398808360E-1,6.108647957E-2,3.380373120E-1
1.814508630E1,6.155989766E-1,1.269071549E-1,2.683987021E-1
1.816454995E1,2.252563834E-1,-2.977965772E-2,9.689842910E-2
1.818401120E1,-2.489273995E-2,-3.433060050E-1,-5.642863363E-2
1.820347484E1,1.269071549E-1,-6.719512343E-1,-1.544724256E-1
1.822293609E1,4.071413875E-1,-7.626646757E-1,-1.101847365E-1
1.824239974E1,5.929969549E-1,-6.805033684E-1,8.170315996E-3
1.826186099E1,6.889027357E-1,-5.496255755E-1,1.338557452E-1
1.828132463E1,7.301361561E-1,-3.970620930E-1,2.057850659E-1
1.830078588E1,6.348412037E-1,-2.710712552E-1,1.724929363E-1
1.832024953E1,4.795288444E-1,-2.247982323E-1,9.934188426E-2
1.833971078E1,3.364337683E-1,-2.263254076E-1,1.378263682E-1
1.835917443E1,-2.443459071E-2,-5.004509687E-1,1.747836918E-1
1.837863568E1,-6.756164432E-1,-1.162781119E0,1.471420527E-1
1.839809932E1,-1.413541079E0,-2.077398300E0,-4.609738290E-1
1.841756068E1,-1.123227596E0,-2.348775148E0,-5.762745738E-1
1.843702432E1,-4.909825623E-1,1.489288330E0,4.305832982E-1
1.845648557E1,-2.984074354E-1,2.772867918E0,5.726857111E-3
1.847594922E1,4.795288444E-1,1.958585143E0,-7.597630471E-2
1.849541047E1,1.040302753E0,6.583595276E-1,-2.034943253E-1
1.851487411E1,9.053016305E-1,4.616610706E-1,1.580612548E-2
1.853433536E1,1.912006736E-1,5.705476999E-1,9.063705802E-2
1.855379901E1,-1.446222365E-1,9.604321718E-1,2.290742996E-4
1.857326036E1,-2.009745091E-1,1.138346553E0,-1.249982044E-1
1.859272401E1,-9.605848789E-2,9.451605082E-1,-9.476039559E-2
1.861218526E1,1.073594838E-1,4.932733178E-1,-6.314814836E-2
1.863164890E1,8.933897316E-2,2.745837271E-1,-1.585957706E-1
1.865111015E1,-2.054032832E-1,2.385426909E-1,-2.754236460E-1
1.867057380E1,-3.790415823E-1,2.273944169E-1,-3.123809695E-1
1.869003505E1,-2.287688553E-1,4.337139800E-2,-2.409097999E-1
1.870949870E1,1.069013379E-3,-8.872810751E-2,-2.048687786E-1
1.872895995E1,9.529490769E-2,-1.592829973E-1,-2.053269297E-1
1.874842359E1,1.466075517E-2,-1.643226296E-1,-2.236528695E-1
1.876788484E1,-2.509126961E-1,-4.367683083E-2,-2.221257091E-1
1.878734849E1,-5.222893953E-1,5.772672221E-2,-1.853211075E-1
1.880680984E1,-5.891790986E-1,3.573558852E-2,-1.118646115E-1
1.882627349E1,-6.612611413E-1,-6.872228533E-2,-1.880699992E-1
1.884573474E1,-3.220784664E-1,-2.307541668E-1,-2.063959390E-1
1.886519838E1,-2.825249545E-2,-6.288852692E-1,-1.424078494E-1
1.888465963E1,-3.188714087E-1,-1.629481792E0,-1.916588284E-2
1.890412328E1,-9.447023869E-1,-9.201150537E-1,-1.382845193E-1
1.892358463E1,-9.309579134E-1,9.973894954E-1,-2.456440032E-1
1.894304828E1,-3.298669755E-1,6.724094152E-1,-6.192641705E-2
1.896250953E1,1.791360974E-1,1.863137633E-2,2.958876193E-1
1.898197318E1,-2.090684772E-1,-3.013090491E-1,4.231002033E-1
1.900143443E1,-5.983420610E-1,5.375609919E-2,2.974147797E-1
1.902089818E1,-4.673115611E-1,6.965385675E-1,1.628718227E-1
1.904035943E1,-8.491020650E-2,9.384410381E-1,1.631772518E-1
1.905982307E1,3.387245238E-1,6.598866582E-1,3.071886301E-1
1.907928432E1,5.480984449E-1,1.007926911E-1,4.397462904E-1
1.909874797E1,4.379900396E-1,-1.641699076E-1,4.038579762E-1
1.911820922E1,9.728021920E-2,7.437278330E-2,1.805869043E-1
1.913767286E1,-1.728747338E-1,3.359756200E-3,-5.520690605E-2
1.915713422E1,-1.356119812E-1,-4.103484154E-1,-2.002872825E-1
1.917659786E1,2.076940238E-2,-7.237220407E-1,-2.294560820E-1
1.919605911E1,4.948004708E-2,-7.087558508E-1,-1.995237023E-1
1.921552276E1,-6.001746282E-2,-5.047270060E-1,-1.184314117E-1
1.923498401E1,-2.054032832E-1,-2.727511227E-1,-3.443750367E-2
1.925444765E1,-2.490801066E-1,-7.345648855E-2,3.978256881E-2
1.927390901E1,-2.076940238E-1,-1.252272818E-2,1.666897237E-1
1.929337265E1,-3.286452591E-1,-2.269362658E-1,2.813795805E-1
1.931283390E1,-6.895136237E-1,-5.612320304E-1,2.520580888E-1
1.933229755E1,-1.178510904E0,-1.418886185E0,3.501018882E-1
1.935175890E1,-1.425147533E0,-2.220493555E0,1.996764243E-1
1.937122255E1,-3.640754223E-1,-1.657581568E0,1.046105940E-2
1.939068380E1,8.669698238E-1,1.917199135E0,2.720639110E-1
1.941014745E1,1.197600365E0,2.118021011E0,-9.460768104E-2
1.942960880E1,1.032056093E0,8.859066367E-1,-1.207221523E-1
1.944907245E1,1.073442101E0,-8.964440972E-2,-6.299543381E-2
1.946853370E1,1.122158647E0,-2.594648004E-1,-3.588830587E-3
1.948799734E1,8.746056557E-1,2.153298259E-2,-3.436114406E-3
1.950745870E1,5.517635942E-1,4.411970973E-1,-1.824958436E-2
1.952692234E1,9.056070447E-2,5.763509274E-1,-4.436405376E-2
1.954638359E1,-3.791943192E-1,3.000873327E-1,-7.490729541E-2
1.956584724E1,-7.147117853E-1,2.544251680E-1,-2.207512558E-1
1.958530859E1,-8.097012639E-1,3.433060050E-1,-3.131445646E-1
1.960477224E1,-6.589703560E-1,3.853029609E-1,-3.253618479E-1
1.962423349E1,-4.355465770E-1,3.382663727E-1,-2.713003159E-1
1.964369713E1,-3.278816640E-1,2.351829410E-1,-1.899025887E-1
1.966315838E1,-3.245218992E-1,6.093376130E-2,-1.025489271E-1
1.968262213E1,-3.468184769E-1,-1.310304999E-1,-1.931859925E-2
1.970208338E1,-3.136790693E-1,-2.796233594E-1,7.002037764E-2
1.972154703E1,-2.131918073E-1,-3.911061883E-1,1.621082425E-1
1.974100828E1,-1.339320987E-1,-5.563451052E-1,1.679114550E-1
1.976047192E1,-1.209512278E-1,-5.800161362E-1,7.322741300E-2
1.977993328E1,-1.579085439E-1,-3.889681399E-1,-4.405862093E-2
1.979939692E1,1.592829973E-1,-6.290380359E-1,-8.239039034E-2
1.981885818E1,4.230238497E-1,-1.038622856E0,-1.458439697E-2
1.983832193E1,-5.830704570E-1,-1.856723547E0,-4.687623680E-1
1.985778318E1,-1.100472927E0,-6.646208763E-1,-4.383718371E-1
1.987724682E1,-3.688096106E-1,1.910021424E0,1.501963735E-1
1.989670818E1,-1.252272818E-2,1.473253131E0,2.375500351E-1
1.991617182E1,4.303542376E-1,4.769326746E-1,3.693441153E-1
1.993563318E1,4.575377107E-1,2.999345958E-1,6.115520000E-1
1.995509682E1,1.291978955E-1,5.345066786E-1,5.745946765E-1
1.997455807E1,1.664606482E-2,7.638863921E-1,4.588358104E-1
1.999402172E1,-2.993237413E-2,6.782126427E-1,4.447859228E-1
2.001348307E1,1.672242284E-1,3.023780584E-1,4.258491099E-1
2.003294672E1,3.671297431E-1,-6.078104675E-2,3.212385178E-1
2.005240797E1,2.218966335E-1,1.252272818E-2,8.575014025E-2
2.007187172E1,-8.399390429E-2,9.865466505E-2,-4.665479809E-2
2.009133297E1,-1.032361463E-1,-7.971785218E-2,-8.513928205E-2
2.011079661E1,1.704312712E-1,-2.965748608E-1,-7.635809743E-5
2.013025786E1,5.383245945E-1,-3.509418070E-1,6.391172856E-2
2.014972161E1,7.773254514E-1,-2.194531709E-1,1.318704337E-1
2.016918286E1,8.368847370E-1,-8.552107029E-3,1.335503161E-1
2.018864651E1,7.594576478E-1,1.999054998E-1,6.757691503E-2
2.020810786E1,6.623301506E-1,2.724456787E-1,-4.390590638E-2
2.022757151E1,6.044507027E-1,1.962403059E-1,-1.117118970E-1
2.024703276E1,4.767799675E-1,1.146898642E-1,-1.042288020E-1
2.026649651E1,2.565632164E-1,-6.933315098E-2,-1.290451828E-2
2.028595776E1,4.016435891E-2,-4.714348912E-1,6.604975462E-2
2.030542140E1,-2.848156989E-1,-1.111315727E0,2.068540901E-1
2.032488276E1,-8.694133162E-1,-2.131459951E0,1.766162813E-1
2.034434640E1,-1.187979221E0,-3.103956699E0,-2.839757502E-1
2.036380776E1,-3.911061883E-1,1.276554704E0,1.025489271E-1
2.038327140E1,2.614501119E-1,2.351523876E0,6.643154658E-3
2.040273276E1,7.542653084E-1,1.486539483E0,-3.323867917E-1
2.042219640E1,1.104443550E0,7.687733173E-1,-2.488510460E-1
2.044165765E1,1.054352641E0,5.209149122E-1,-5.826122686E-2
2.046112140E1,7.536544204E-1,7.052434087E-1,-4.390590638E-2
2.048058265E1,5.777253509E-1,9.440914989E-1,-1.384372264E-1
2.050004630E1,4.532616735E-1,9.694424272E-1,-1.659261435E-1
2.051950765E1,1.815795600E-1,6.206386089E-1,-1.534034163E-1
2.053897130E1,-9.407317638E-2,2.959639728E-1,-1.818086356E-1
2.055843265E1,-2.652680278E-1,1.672242284E-1,-1.112537459E-1
2.057789630E1,-2.926042378E-1,1.522580534E-1,-6.681333482E-2
2.059735755E1,-2.481638193E-1,-8.185587823E-2,-4.512763396E-2
2.061682130E1,-2.168570012E-1,-2.922987938E-1,-6.360629201E-2
2.063628255E1,-2.006690800E-1,-4.014908671E-1,-7.887791097E-2
2.065574620E1,-1.803578287E-1,-4.831940532E-1,-1.086575761E-1
2.067520755E1,-1.550069451E-1,-4.928151667E-1,-1.414915472E-1
2.069467120E1,-1.702785641E-1,-5.319104791E-1,-1.650098413E-1
2.071413255E1,-3.213148713E-1,-6.388118267E-1,-1.662315726E-1
2.073359620E1,-3.935496211E-1,-6.629409790E-1,-1.227074638E-1
2.075305745E1,-3.242164850E-1,-6.598866582E-1,-5.749764666E-2
2.077252120E1,-2.376264036E-1,-6.653844714E-1,-1.306487024E-1
2.079198245E1,-9.758564830E-2,-6.514872909E-1,-2.302196622E-1
2.081144620E1,-3.254382014E-1,-1.655138135E0,-5.332086086E-1
2.083090745E1,-8.333722949E-1,-2.528827429E0,-5.551233515E-2
2.085037120E1,-6.294961572E-1,7.232639194E-1,-7.658717036E-2
2.086983245E1,-3.628536761E-1,1.100014806E0,5.062541738E-2
2.088929620E1,3.866774142E-1,7.304415703E-1,3.126864135E-1
2.090875745E1,7.232639194E-1,-5.543597788E-2,7.560214996E-1
2.092822120E1,4.474584460E-1,2.530507445E-1,6.521745324E-1
2.094768245E1,3.350593448E-1,1.100625634E0,2.793942690E-1
2.096714620E1,-2.871064469E-2,1.499978423E0,2.176205814E-2
2.098660745E1,-5.062541962E-1,1.104596257E0,3.413207084E-2
2.100607120E1,-4.929678738E-1,1.110246703E-1,2.201403975E-1
2.102553245E1,5.650499091E-2,2.061668634E-1,3.843103051E-1
2.104499620E1,3.688096106E-1,3.956876695E-1,4.040106833E-1
2.106445745E1,2.817613780E-1,2.290742993E-1,1.911243200E-1
2.108392109E1,5.619955808E-2,-2.441931963E-1,4.925097153E-2
2.110338245E1,-1.069013327E-1,-6.621774435E-1,2.061668551E-3
2.112284609E1,-1.542433500E-1,-7.649554014E-1,-8.513928205E-2
2.114230745E1,-1.606574357E-1,-5.549706817E-1,-1.390480995E-1
2.116177109E1,-1.484401375E-1,-3.028362095E-1,-1.888335794E-1
2.118123245E1,-2.000582218E-1,-6.337722391E-2,-2.946659029E-1
2.120069609E1,-3.509418070E-1,1.432477981E-1,-4.114937782E-1
2.122015745E1,-4.676169753E-1,2.376264036E-1,-4.059959948E-1
2.123962109E1,-5.707004070E-1,1.734855920E-1,-2.554178238E-1
2.125908245E1,-3.886627257E-1,-3.862192631E-1,2.138790339E-1
2.127854609E1,-6.527090073E-1,-3.170693636E0,5.799397230E-1
2.129800745E1,-1.424842030E-1,2.244928107E-2,9.246965498E-2
2.131747120E1,4.272999167E-1,2.410472393E0,8.315397054E-2
2.133693245E1,7.307469845E-1,2.026849270E0,-1.179732606E-1
2.135639620E1,7.809906006E-1,5.693259835E-1,-1.297324002E-1
2.137585745E1,6.472112536E-1,-2.527453005E-1,-1.198822167E-2
2.139532120E1,4.737256467E-1,1.221729559E-3,-1.641699113E-2
2.141478255E1,5.019781590E-1,5.836812854E-1,-1.222493127E-1
2.143424620E1,4.514290690E-1,8.132137656E-1,-1.187368408E-1
2.145370755E1,1.811214089E-1,5.966621637E-1,-1.179732606E-1
2.147317120E1,-2.373209596E-1,3.536907136E-1,-1.584430486E-1
2.149263255E1,-5.758927464E-1,2.011272311E-1,-2.271653414E-1
2.151209620E1,-6.586649418E-1,1.298087686E-1,-2.496146262E-1
2.153155755E1,-5.539016128E-1,4.505127668E-2,-2.540434003E-1
2.155102120E1,-4.541779757E-1,-2.855792828E-2,-2.563341260E-1
2.157048255E1,-4.189005196E-1,-9.330959618E-2,-2.367864549E-1
2.158994620E1,-3.996582925E-1,-1.879936308E-1,-1.740200967E-1
2.160940755E1,-3.339903057E-1,-2.796233594E-1,-8.758273721E-2
2.162887120E1,-2.041815519E-1,-3.459021747E-1,1.382081583E-2
2.164833255E1,-1.550069451E-1,-4.780016840E-1,6.772962958E-2
2.166779620E1,-2.136499584E-1,-5.642863512E-1,4.619665071E-2
2.168725755E1,-3.891208768E-1,-6.243038177E-1,-1.061377581E-2
2.170672120E1,-3.320049942E-1,-6.502655745E-1,-7.628174126E-2
2.172618255E1,4.282162189E-1,-9.871574640E-1,8.468113095E-2
2.174564630E1,6.026180983E-1,-1.329852581E0,7.948877662E-2
2.176510755E1,-2.845102847E-1,-1.304196358E0,-2.085339576E-1
2.178457130E1,-6.275108457E-1,7.687733173E-1,-2.580140233E-1
2.180403265E1,1.232419685E-1,8.718567491E-1,-8.055779338E-2
2.182349630E1,7.496837974E-1,-4.123337101E-3,1.201112866E-1
2.184295765E1,7.878628373E-1,-5.085449293E-2,3.762163520E-1
2.186242140E1,1.718057245E-1,2.176205814E-1,3.730092943E-1
2.188188265E1,-3.278816640E-1,5.606211424E-1,1.614973694E-1
2.190134640E1,-4.407389462E-1,5.323686600E-1,1.839466542E-1
2.192080776E1,-1.235474050E-1,2.532034516E-1,2.186132371E-1
2.194027140E1,3.149007857E-1,-3.237583488E-2,2.428951114E-1
2.195973276E1,4.511236250E-1,-2.816086709E-1,1.837939471E-1
2.197919640E1,2.399171442E-1,-1.104138121E-1,6.650790572E-2
2.199865776E1,1.527161920E-3,-1.374445762E-2,1.320995111E-2
2.201812151E1,7.498364896E-2,-2.350302190E-1,-4.024071619E-2
2.203758276E1,4.129445851E-1,-4.703658819E-1,-5.093085021E-2
2.205704651E1,6.125446558E-1,-4.179842174E-1,-5.902481079E-2
2.207650786E1,5.569559336E-1,-2.579376400E-1,-7.719803602E-2
2.209597151E1,3.472766280E-1,-1.206457894E-2,-8.895718306E-2
2.211543286E1,1.849393100E-1,2.278525680E-1,-3.764454275E-2
2.213489651E1,1.719584316E-1,3.649916947E-1,2.069304511E-2
2.215435786E1,2.122755051E-1,3.517054021E-1,5.062541738E-2
2.217382161E1,8.216131479E-2,1.404989064E-1,5.703949928E-2
2.219328286E1,-2.805396616E-1,-2.918406427E-1,7.383827865E-2
2.221274661E1,-6.317868829E-1,-9.735657573E-1,1.169042438E-1
2.223220797E1,-9.683734179E-1,-1.881158113E0,2.313650399E-2
2.225167161E1,-9.622647166E-1,-3.189172268E0,-4.389826953E-1
2.227113297E1,-8.749110699E-1,-5.505418777E-1,1.083521396E-1
2.229059672E1,-1.252272725E-1,2.068693638E0,1.819613427E-1
2.231005807E1,3.680460155E-1,1.795789719E0,-1.641699113E-2
2.232952172E1,6.884446144E-1,5.740602016E-1,-8.475748822E-3
2.234898307E1,5.650499463E-1,7.605266571E-2,2.710712515E-2
2.236844682E1,7.009673119E-2,-2.214384824E-2,3.092502989E-2
2.238790818E1,-9.178243577E-2,1.479819864E-1,9.567669779E-2
2.240737182E1,1.456912458E-1,4.714348912E-1,-8.323032409E-3
2.242683318E1,3.474293351E-1,6.757691503E-1,-1.222493127E-1
2.244629693E1,2.527453005E-1,5.348120928E-1,-6.345357746E-2
2.246575818E1,7.681624591E-2,2.031125426E-1,-2.023489587E-2
2.248522192E1,2.748891478E-3,1.185077652E-1,-6.971494108E-2
2.250468328E1,-2.977965772E-2,1.307250559E-1,-1.107956022E-1
2.252414692E1,-1.847865991E-2,8.093958721E-3,-1.326340139E-1
2.254360828E1,-2.321286127E-2,-2.246455252E-1,-1.605810821E-1
2.256307203E1,-9.712749720E-2,-3.268126547E-1,-2.416733801E-1
2.258253328E1,-2.174678594E-1,-3.048215210E-1,-2.829067409E-1
2.260199703E1,-2.645044625E-1,-2.773326039E-1,-2.880991101E-1
2.262145838E1,-2.428187430E-1,-2.444986254E-1,-2.752709389E-1
2.264092203E1,-1.492037177E-1,-2.420551628E-1,-2.841284871E-1
2.266038338E1,-6.566796452E-3,-2.351829410E-1,-2.618319094E-1
2.267984713E1,5.192350596E-2,-2.293797284E-1,-2.348011434E-1
2.269930849E1,6.093376130E-2,-1.740964651E-1,-2.315941155E-1
2.271877213E1,1.191186309E-1,-3.471239209E-1,-9.995274991E-2
2.273823349E1,1.130099874E-2,-1.384219646E0,-1.672242396E-2
2.275769724E1,-2.403752953E-1,-1.044578791E0,-1.563050300E-1
2.277715859E1,-4.586067200E-1,1.285412192E0,-4.069122970E-1
2.279662234E1,-4.159989059E-1,1.159421325E0,-2.557232678E-1
2.281608370E1,1.847866029E-1,3.446804583E-1,2.082285285E-1
2.283554734E1,5.154171586E-1,-6.001746282E-2,5.916988850E-1
2.285500870E1,9.941824526E-2,2.516762912E-1,4.298197329E-1
2.287447245E1,-1.206457913E-1,7.406735420E-1,1.501963735E-1
2.289393380E1,-5.726857483E-2,1.188132048E0,3.520108387E-2
2.291339755E1,2.144135386E-1,1.371391416E0,1.879172772E-1
2.293285880E1,4.376846254E-1,1.144607902E0,3.898080885E-1
2.295232255E1,4.891499579E-1,6.574432254E-1,4.657080472E-1
2.297178390E1,2.388481349E-1,7.473930717E-1,3.824777007E-1
2.299124765E1,-9.926552884E-3,4.567741454E-1,1.650098413E-1
2.301070901E1,-2.046396956E-2,3.207040019E-3,3.077231348E-2
2.303017265E1,4.138609022E-2,-2.658788860E-1,2.069304511E-2
2.304963401E1,-8.048143238E-2,-2.385426909E-1,1.534797717E-2
2.306909776E1,-2.677114904E-1,-6.169734150E-2,8.017600514E-3
2.308855911E1,-3.333794475E-1,1.406516135E-1,9.544761851E-3
2.310802276E1,-2.391535640E-1,1.837175786E-1,4.963276442E-3
2.312748411E1,-1.169806048E-1,7.208204269E-2,-3.817904799E-4
2.314694786E1,-1.881463528E-1,-1.719584316E-1,3.291033953E-2
2.316640922E1,-2.784016132E-1,-6.380482912E-1,1.810450554E-1
2.318587297E1,-6.415607333E-1,-1.645669699E0,1.984546930E-1
2.320533432E1,-1.153159976E0,-3.216050386E0,5.421424750E-3
2.322479807E1,-3.399462402E-1,-1.258534193E0,9.338594973E-2
2.324425943E1,2.735147178E-1,2.058919668E0,6.375901401E-2
2.326372307E1,3.489564955E-1,1.595578790E0,2.349538654E-1
2.328318442E1,4.602866173E-1,6.656898856E-1,8.575014025E-2
2.330264818E1,7.779362798E-1,1.362228394E-1,6.772962958E-2
2.332210953E1,7.707586288E-1,1.846338809E-1,1.763872057E-2
2.334157328E1,6.899717450E-1,6.569850445E-1,-5.345066893E-4
2.336103463E1,7.257073522E-1,9.892954826E-1,2.328922041E-2
2.338049838E1,7.024945021E-1,8.206968307E-1,7.338013500E-2
2.339995974E1,5.009090900E-1,4.129445851E-1,2.099847607E-2
2.341942338E1,2.021962404E-1,2.379318327E-1,-1.387426704E-1
2.343888474E1,-6.780599058E-2,1.493564397E-1,-2.569449842E-1
2.345834849E1,-1.259908676E-1,-9.529490769E-2,-2.708421648E-1
2.347780984E1,-2.764163166E-2,-3.575085998E-1,-2.120464295E-1
2.349727359E1,6.414080411E-2,-4.848739207E-1,-1.912770271E-1
2.351673495E1,4.718930274E-2,-5.520690680E-1,-1.789070219E-1
2.353619870E1,-4.046979174E-2,-6.120865345E-1,-1.697440445E-1
2.355566005E1,-1.941022873E-1,-5.928442478E-1,-1.259144992E-1
2.357512370E1,-3.822486401E-1,-5.656607747E-1,-3.901898861E-2
2.359458505E1,-3.530798554E-1,-6.502655745E-1,-2.573267929E-2
2.361404880E1,6.108647678E-3,-7.567087412E-1,1.076649129E-2
2.363351015E1,4.526508152E-1,-6.798924804E-1,1.733328775E-2
2.365297390E1,8.491020203E-1,-8.885028362E-1,2.629009187E-1
2.367243526E1,3.338375986E-1,-1.165377259E0,5.048033595E-1
2.369189901E1,-1.415831804E0,-1.136819363E0,1.598175019E-1
2.371136036E1,-2.061668634E0,-8.613193035E-2,-1.422551423E-1
2.373082411E1,-1.112842917E0,7.977893949E-1,5.879573524E-3
2.375028547E1,5.815432668E-1,4.108065665E-1,1.692859083E-1
2.376974922E1,1.337946534E0,1.463021189E-1,3.485747278E-1
2.378921057E1,7.841976881E-1,2.866483033E-1,4.128682315E-1
2.380867432E1,-5.665770918E-2,6.407971382E-1,2.050214857E-1
2.382813568E1,-5.369501114E-1,8.067996502E-1,1.798233241E-1
2.384759932E1,-3.970620930E-1,5.526798964E-1,3.052033186E-1
2.386706078E1,2.988655865E-1,3.924806118E-1,3.957640231E-1
2.388652442E1,7.348703146E-1,1.324049383E-1,3.911825418E-1
2.390598578E1,4.850266278E-1,-4.489856213E-2,1.970802546E-1
2.392544953E1,-1.699731201E-1,1.913533956E-1,6.482802331E-2
2.394491088E1,-4.732674956E-1,2.067777216E-1,-3.229947388E-2
2.396437463E1,-2.313650399E-1,4.428769462E-3,-4.665479809E-2
2.398383599E1,2.298378795E-1,-1.870773435E-1,6.482802331E-2
2.400329974E1,5.079340935E-1,-1.876882017E-1,1.795178801E-1
2.402276109E1,4.828886092E-1,-4.810560122E-2,1.828776449E-1
2.404222484E1,2.550360560E-1,1.739437431E-1,8.987347782E-2
2.406168620E1,4.062250629E-2,3.819431961E-1,-5.917752534E-2
2.408114995E1,3.375028074E-2,3.860665262E-1,-1.676060259E-1
2.410061130E1,2.021962404E-1,1.771507859E-1,-1.428660005E-1
2.412007505E1,4.279107749E-1,-1.918115467E-1,-8.452841640E-2
2.413953640E1,5.381718874E-1,-7.712168097E-1,4.528035223E-2
2.415900015E1,2.055560052E-1,-1.604283571E0,1.091157198E-1
2.417846151E1,-4.395172000E-1,-3.407403708E0,1.834885031E-1
2.419792526E1,-2.640463114E-1,-1.820376992E0,-4.829649627E-1
2.421738661E1,3.173442483E-1,1.561064959E0,-3.230711222E-1
2.423685036E1,3.463603258E-1,1.838550329E0,-2.575558722E-1
2.425631172E1,2.658788860E-1,8.692606091E-1,-1.828776449E-1
2.427577547E1,2.536616027E-1,2.987128794E-1,-4.375318810E-2
2.429523682E1,3.541488647E-1,2.058614343E-1,-6.543888897E-2
2.431470057E1,3.723220825E-1,3.871355653E-1,-5.520690605E-2
2.433416192E1,4.291325212E-1,6.924152374E-1,-5.642863363E-2
2.435362568E1,4.456258714E-1,8.399390578E-1,-8.239039034E-2
2.437308713E1,1.426369250E-1,7.099775672E-1,-9.414953738E-2
2.439255078E1,-2.199113220E-1,2.351829410E-1,-6.956222653E-2
2.441201224E1,-3.853029609E-1,2.626718581E-2,-1.518762559E-1
2.443147588E1,-3.932442069E-1,5.161807314E-2,-1.805869043E-1
2.445093734E1,-3.071122766E-1,-3.451386094E-2,-2.005927265E-1
2.447040109E1,-1.197294965E-1,-2.493855506E-1,-1.544724256E-1
2.448986245E1,1.298087649E-2,-4.118755758E-1,-1.524871141E-1
2.450932620E1,4.382954910E-2,-4.601338804E-1,-1.425605714E-1
2.452878755E1,5.818486959E-2,-4.476111531E-1,-1.259144992E-1
2.454825130E1,8.231402934E-2,-3.995055556E-1,-1.048396677E-1
2.456771265E1,5.345067009E-3,-4.356993139E-1,-8.895718306E-2
2.458717640E1,-1.927278340E-1,-4.528035223E-1,-1.233183295E-1
2.460663776E1,-4.143190384E-1,-4.086685479E-1,-2.315941155E-1
2.462610151E1,-4.442514181E-1,-3.510945439E-1,-3.452149630E-1
2.464556286E1,6.719512399E-3,-1.875354946E-1,-8.330668509E-2
2.466502661E1,3.207040019E-3,-7.764091492E-1,3.061196208E-1
2.468448797E1,-8.619301915E-1,-8.823941946E-1,-1.114064679E-1
2.470395182E1,-1.581987023E0,9.340122342E-1,-4.789943397E-1
2.472341318E1,-1.100320220E0,1.039080977E0,-5.367210507E-1
2.474287692E1,2.787070572E-1,6.378955245E-1,-4.528035223E-2
2.476233828E1,8.680388331E-1,4.184423760E-2,6.083449721E-1
2.478180203E1,3.619373739E-1,1.039997265E-1,5.167152286E-1
2.480126338E1,-3.287979662E-1,5.406153202E-1,1.240819097E-1
2.482072724E1,-7.018836141E-1,9.943351150E-1,-1.195004210E-1
2.484018859E1,-6.690496206E-1,1.014493704E0,-8.315397054E-2
2.485965234E1,-3.868301213E-1,5.710058808E-1,1.225547493E-1
2.487911370E1,-2.596175298E-2,9.468403645E-3,3.108538091E-1
2.489857745E1,3.161225095E-2,9.346231073E-2,3.134499788E-1
2.491803880E1,-2.802342176E-1,2.570213675E-1,1.002581790E-1
2.493750255E1,-5.343539715E-1,4.642572254E-2,-1.285106838E-1
2.495696390E1,-4.845684767E-1,-2.974911332E-1,-1.506545246E-1
2.497642765E1,-2.318231910E-1,-5.071704984E-1,-7.933606207E-2
2.499588911E1,-2.138026804E-2,-5.639809370E-1,-2.802342176E-2
2.501535286E1,-4.886918236E-3,-4.314232469E-1,-5.948295817E-2
2.503481422E1,-1.021671370E-1,-1.956294477E-1,-1.474474818E-1
2.505427797E1,-1.644753367E-1,-1.847865991E-2,-1.961639524E-1
2.507373932E1,-1.953240186E-1,-8.628465235E-2,-1.700494885E-1
2.509320307E1,-1.478292793E-1,-4.841103256E-1,-5.673406646E-2
2.511266443E1,-1.508836001E-1,-1.280525327E0,1.234710440E-1
2.513212828E1,-4.868592322E-1,-2.439335823E0,7.582359016E-2
2.515158963E1,-7.843503952E-1,-2.834107161E0,4.325686097E-1
2.517105338E1,-3.643808365E-1,4.564687014E-1,4.179078639E-1
2.519051474E1,8.536835015E-2,2.102596521E0,2.387717664E-1
2.520997859E1,3.150535226E-1,1.467602611E0,6.696604937E-2
2.522943995E1,5.329795480E-1,6.281217337E-1,2.267835476E-2
2.524890370E1,4.723511934E-1,3.249800503E-1,5.887209252E-2
2.526836505E1,1.247691289E-1,2.307541668E-1,1.286633909E-1
2.528782890E1,1.553123742E-1,3.796524704E-1,1.538615674E-1
2.530729026E1,5.514581800E-1,6.427824497E-1,4.802924395E-2
2.532675401E1,7.958040833E-1,7.327322960E-1,3.428478539E-2
2.534621536E1,6.120865345E-1,5.393936038E-1,1.195004210E-1
2.536567911E1,1.908952445E-1,2.489273995E-1,1.193477064E-1
2.538514057E1,-9.987638891E-2,4.546361268E-1,1.550069358E-2
2.540460432E1,-2.098320574E-1,6.064360142E-1,-1.886808574E-1
2.542406568E1,-1.598938555E-1,4.763218164E-1,-3.107011020E-1
2.544352942E1,-9.514218569E-2,2.370155305E-1,-3.326922357E-1
2.546299078E1,-1.211039424E-1,1.218675226E-1,-3.442986608E-1
2.548245463E1,-2.222020626E-1,5.650499370E-3,-3.450622559E-1
2.550191599E1,-3.164279461E-1,-2.377791107E-1,-3.259727061E-1
2.552137974E1,-3.703367710E-1,-4.239401519E-1,-2.199876755E-1
2.554084109E1,-3.657552898E-1,-4.992292523E-1,-1.046869531E-1
2.556030484E1,-2.900080681E-1,-5.068650246E-1,-5.734493211E-2
2.557976630E1,-3.767508566E-1,-6.617192626E-1,-9.078978002E-2
2.559923005E1,-3.220784664E-1,-8.943060637E-1,-1.382845193E-1
2.561869140E1,2.386954129E-1,-1.366657257E0,-2.290742996E-4
2.563815515E1,2.614501119E-1,-1.820071578E0,-2.771798894E-2
2.565761661E1,-3.058905303E-1,-1.736077666E0,-2.068540901E-1
2.567708036E1,-4.482220411E-1,6.427824497E-1,-1.071304083E-1
2.569654172E1,-2.915352285E-1,1.183245063E0,8.437569439E-2
2.571600557E1,-7.910698652E-2,1.776089370E-1,2.781725526E-1
2.573546692E1,2.206749022E-1,6.078104675E-2,3.667479455E-1
2.575493068E1,1.304196268E-1,3.500255048E-1,3.583485484E-1
2.577439213E1,7.024945319E-2,7.527381182E-1,2.328158319E-1
2.579385588E1,2.622137070E-1,9.508110285E-1,2.613737583E-1
2.581331724E1,6.166679859E-1,8.768963814E-1,3.526980579E-1
2.583278109E1,7.176133990E-1,6.032289863E-1,3.009272516E-1
2.585224245E1,4.668534100E-1,1.643226296E-1,1.424078494E-1
2.587170620E1,8.093958348E-2,-9.773836471E-3,-9.239329956E-3
2.589116765E1,-6.444623321E-2,-1.084285006E-1,-7.933606207E-2
2.591063140E1,1.139262840E-1,-1.369864196E-1,-1.201112866E-1
2.593009276E1,3.707949221E-1,-1.427896470E-1,-6.742420048E-2
2.594955651E1,4.670061171E-1,-1.495091617E-1,5.780307949E-2
2.596901797E1,3.711003661E-1,-7.757982612E-2,1.634826809E-1
2.598848172E1,1.237001196E-1,8.353576064E-2,1.970802546E-1
2.600794307E1,-8.628465235E-2,3.400989771E-1,1.161406636E-1
2.602740682E1,-1.449276656E-1,4.364628792E-1,-1.290451828E-2
2.604686828E1,-1.527161920E-3,3.271180987E-1,-1.103374511E-1
2.606633203E1,1.350011230E-1,1.128572673E-1,-7.887791097E-2
2.608579338E1,3.497200832E-2,-2.834412456E-1,-3.718639165E-2
2.610525724E1,-1.408043355E-1,-1.054658055E0,-1.756236190E-3
2.612471859E1,-2.160934210E-1,-1.734550595E0,5.581776798E-2
2.614418234E1,-3.211621642E-1,-3.249189854E0,2.520580888E-1
2.616364380E1,1.130099874E-2,3.878991306E-2,1.828776449E-1
2.618310755E1,3.055851161E-1,2.219882727E0,8.437569439E-2
2.620256901E1,3.764454126E-1,1.771965981E0,-7.635809743E-5
2.622203276E1,5.233584046E-1,6.099484563E-1,1.187368408E-1
2.624149422E1,4.149298966E-1,2.218966335E-1,2.512944937E-1
2.626095797E1,1.556178033E-1,2.959639728E-1,2.399934977E-1
2.628041932E1,1.879936308E-1,6.947059631E-1,7.857248187E-2
2.629988318E1,4.234820008E-1,9.662353396E-1,-7.490729541E-2
2.631934453E1,5.467239618E-1,8.352048993E-1,-9.903645515E-2
2.633880828E1,3.752236962E-1,3.422369957E-1,-6.559160352E-2
2.635826974E1,1.136208475E-1,-6.261364091E-3,-3.107774630E-2
2.637773349E1,3.176496923E-2,-8.536835015E-2,-3.153589368E-2
2.639719495E1,1.201876476E-1,-2.831358314E-1,-3.275762498E-2
2.641665870E1,2.503018379E-1,-5.256491303E-1,-4.390590638E-2
2.643612005E1,2.507599890E-1,-6.394227147E-1,-6.039925665E-2
2.645558390E1,4.077522457E-2,-6.998983026E-1,-1.100320220E-1
2.647504526E1,-2.228129357E-1,-7.380773425E-1,-2.184605151E-1
2.649450901E1,-5.319104791E-1,-6.676751971E-1,-3.358992636E-1
2.651397047E1,-7.935133576E-1,-6.759218574E-1,-4.666243196E-1
2.653343422E1,-6.192641854E-1,-6.679806113E-1,-5.232820511E-1
2.655289568E1,-2.881754637E-1,-5.282453299E-1,-5.956695080E-1
2.657235943E1,2.860374451E-1,-4.094321132E-1,-4.498255551E-1
2.659182078E1,5.160280466E-1,-4.256200492E-1,-2.380081862E-1
2.661128463E1,-4.822777510E-1,-1.462715745E0,-7.292198390E-2
2.663074599E1,-8.390227556E-1,-7.330377400E-2,-1.880699992E-1
2.665020984E1,-9.364557266E-1,1.365893602E0,-4.623482823E-1
2.666967120E1,-5.247328281E-1,1.022740364E0,-1.210275814E-1
2.668913505E1,1.702785641E-1,6.933315098E-2,4.209621847E-1
2.670859640E1,8.399390616E-3,-2.739728391E-1,7.624356151E-1
2.672806026E1,-5.097666383E-1,2.212857604E-1,5.771908760E-1
2.674752161E1,-6.983711720E-1,9.482148290E-1,2.308305353E-1
2.676698547E1,-5.804742575E-1,1.432019711E0,5.795579776E-2
2.678644682E1,-2.193004489E-1,1.360243201E0,1.004109010E-1
2.680591068E1,8.781181276E-2,4.889972508E-1,2.528216541E-1
2.682537203E1,1.414151937E-1,2.021962404E-1,3.016908467E-1
2.684483578E1,-1.123991162E-1,3.700313270E-1,1.673005968E-1
2.686429724E1,-4.555523992E-1,1.415679157E-1,-5.658135191E-2
2.688376099E1,-6.151408553E-1,-4.048506320E-1,-1.379790753E-1
2.690322245E1,-5.806269646E-1,-7.779362798E-1,-7.903063297E-2
2.692268620E1,-4.488328993E-1,-7.490729094E-1,1.824958436E-2
2.694214765E1,-3.185659945E-1,-4.673115611E-1,1.133917719E-1
2.696161140E1,-2.547306120E-1,5.283980444E-2,1.352301836E-1
2.698107286E1,-1.899789423E-1,4.442514181E-1,1.007163301E-1
2.700053661E1,-2.539670467E-1,4.393644929E-1,4.802924395E-2
2.701999807E1,-4.210385382E-1,-2.748891478E-3,2.374736778E-2
2.703946182E1,-6.354520917E-1,-8.281798959E-1,-1.046105940E-2
2.705892328E1,-7.875574231E-1,-2.218202829E0,-2.435823344E-2
2.707838703E1,-7.779362798E-1,-3.556149244E0,3.180314898E-1
2.709784849E1,7.254019380E-2,2.657261863E-2,1.579848975E-1
2.711731224E1,5.986474752E-1,2.304640055E0,1.934150606E-1
2.713677370E1,7.510582209E-1,2.019366264E0,3.306305781E-2
2.715623755E1,1.068555236E0,8.153517842E-1,5.917752534E-2
2.717569890E1,1.470656991E0,2.617555559E-1,-1.473711245E-2
2.719516276E1,1.547473192E0,2.353356630E-1,-9.399681538E-2
2.721462411E1,1.384372354E0,6.071996093E-1,-9.521854669E-2
2.723408797E1,1.167515278E0,9.216422439E-1,-3.107774630E-2
2.725354932E1,8.278744817E-1,8.005383015E-1,1.824958436E-2
2.727301318E1,3.434587121E-1,3.390299380E-1,2.054032870E-2
2.729247453E1,-6.246092543E-2,1.487455666E-1,-8.475748822E-3
2.731193838E1,-2.189950198E-1,2.005163580E-1,-1.088102907E-1
2.733139984E1,-1.641699076E-1,2.443459071E-2,-1.683696061E-1
2.735086359E1,-5.451968312E-2,-2.715294063E-1,-1.731038094E-1
2.737032505E1,2.336557768E-2,-3.488037884E-1,-1.584430486E-1
2.738978880E1,5.421425030E-2,-3.327685893E-1,-1.216384470E-1
2.740925026E1,7.330377586E-3,-4.181369543E-1,-3.993528336E-2
2.742871401E1,-1.511890348E-2,-6.574432254E-1,5.199986324E-2
2.744817547E1,1.084284950E-2,-8.016073108E-1,1.497382224E-1
2.746763922E1,-5.696314201E-2,-8.720094562E-1,1.404225379E-1
2.748710068E1,-1.386663020E-1,-9.874629378E-1,-6.872228696E-4
2.750656442E1,-1.293506175E-1,-1.091615319E0,-1.253036410E-1
2.752602588E1,3.162752390E-1,-1.081077933E0,-2.402989268E-1
2.754548963E1,1.344818830E0,-1.343749762E0,-1.892917305E-1
2.756495109E1,1.266475439E0,-1.477071047E0,-1.285106838E-1
2.758441495E1,-2.959639728E-1,-2.270889878E-1,-3.189477623E-1
2.760387630E1,-9.654718041E-1,1.850767612E0,-2.706894577E-1
2.762334015E1,-8.946114779E-1,1.340390086E0,-2.471711636E-1
2.764280161E1,-3.993528485E-1,3.022253513E-1,1.277471036E-1
2.766226536E1,3.546070158E-1,1.357647032E-1,4.063014388E-1
2.768172682E1,3.697259128E-1,3.620901108E-1,3.482692838E-1
2.770119068E1,-2.382372692E-2,7.553343177E-1,8.498656005E-2
2.772065203E1,-3.449858725E-1,9.399681687E-1,7.841976732E-2
2.774011588E1,-3.622428179E-1,5.790998340E-1,2.430478185E-1
2.775957734E1,-1.472184062E-1,-1.337793916E-1,3.723984361E-1
2.777904109E1,7.360920310E-2,-3.472766280E-1,3.917934000E-1
2.779850255E1,6.322450191E-2,1.365282834E-1,2.444222718E-1
2.781796630E1,-2.003636509E-1,2.501491308E-1,6.727148592E-2
2.783742776E1,-3.368919194E-1,3.924806044E-2,-9.445496649E-2
2.785689151E1,-1.811214089E-1,-3.275762498E-1,-1.075885594E-1
2.787635297E1,9.254601598E-2,-5.054906011E-1,-6.253728271E-2
2.789581682E1,2.840521336E-1,-4.688387215E-1,-3.672824427E-2
2.791527818E1,2.671006322E-1,-1.508836001E-1,-8.498656005E-2
2.793474203E1,6.459894776E-2,2.254091054E-1,-1.778380126E-1
2.795420349E1,-2.364046723E-1,4.303542376E-1,-2.299142331E-1
2.797366724E1,-4.181369543E-1,5.059487820E-1,-2.219729871E-1
2.799312870E1,-3.072649837E-1,3.320049942E-1,-2.204458266E-1
2.801259245E1,-1.621845961E-1,-3.481929377E-2,-2.552651167E-1
2.803205390E1,-2.756527364E-1,-8.274163604E-1,-3.760636151E-1
2.805151776E1,-4.262309074E-1,-2.291659117E0,-4.898371994E-1
2.807097922E1,-2.771798968E-1,-3.862803459E0,4.512000084E-1
2.809044307E1,2.273944169E-1,1.210734010E0,2.435823344E-2
2.810990443E1,6.340776682E-1,2.620151758E0,7.811433077E-2
2.812936828E1,6.866120100E-1,1.539226532E0,-2.054032870E-2
2.814882974E1,6.821832657E-1,2.391535640E-1,1.955530941E-1
2.816829359E1,5.539016128E-1,5.146535859E-2,2.248746008E-1
2.818775495E1,3.643808365E-1,1.841757298E-1,2.259436101E-1
2.820721880E1,4.828886092E-1,5.858193040E-1,2.219729871E-1
2.822668026E1,7.447968721E-1,9.703587294E-1,2.225838602E-1
2.824614401E1,6.925679445E-1,8.904881477E-1,2.448804229E-1
2.826560547E1,2.802342176E-1,4.731147587E-1,1.986074150E-1
2.828506932E1,-2.162461281E-1,5.911644101E-1,3.130682046E-3
2.830453078E1,-4.905244112E-1,7.064651251E-1,-2.723693252E-1
2.832399453E1,-3.640754223E-1,4.789179862E-1,-3.465894163E-1
2.834345599E1,-4.856374860E-2,1.979201883E-1,-2.937496006E-1
2.836291984E1,1.408043355E-1,1.146898642E-1,-2.201403975E-1
2.838238120E1,1.455385387E-1,8.826996386E-2,-1.651625633E-1
2.840184505E1,7.483093441E-2,2.412915789E-2,-1.213330179E-1
2.842130651E1,-4.153880477E-2,-3.695731983E-2,-9.506583214E-2
2.844077026E1,-3.848448023E-2,-6.994401664E-2,-1.201112866E-1
2.846023172E1,9.514218569E-2,-1.702785641E-1,-1.485165060E-1
2.847969557E1,2.409861535E-1,-5.280926228E-1,-2.199876755E-1
2.849915703E1,2.596175373E-1,-9.523382187E-1,-2.497673333E-1
2.851862078E1,1.372918636E-1,-1.667813540E0,-2.696204484E-1
2.853808224E1,-1.901316643E-1,-2.465297461E0,-3.097847998E-1
2.855754609E1,-7.909171581E-1,-1.392313600E0,-1.214857325E-1
2.857700755E1,-5.958985686E-1,9.272927642E-1,-2.832121849E-1
2.859647140E1,-1.404989064E-1,7.331904769E-1,-2.537379563E-1
2.861593286E1,3.153589368E-1,1.673769504E-1,2.406043708E-1
2.863539672E1,-8.124501258E-2,-2.162461281E-1,6.175079346E-1
2.865485818E1,-5.305360556E-1,-5.115992576E-2,4.933496714E-1
2.867432192E1,-3.749182522E-1,3.084867001E-1,2.885572612E-1
2.869378338E1,4.657844082E-2,4.483747482E-1,2.010508776E-1
2.871324724E1,3.521635532E-1,4.120282829E-1,2.425896823E-1
2.873270870E1,3.900371492E-1,3.622428179E-1,3.378845751E-1
2.875217255E1,1.542433500E-1,-3.130681813E-2,3.583485484E-1
2.877163390E1,-2.764163017E-1,-1.221729536E-2,2.453385741E-1
2.879109776E1,-6.009382010E-1,6.994401664E-2,7.887791097E-2
2.881055922E1,-5.904008150E-1,-1.044578776E-1,-9.277509153E-2
2.883002307E1,-3.678933084E-1,-2.959639728E-1,-5.719221383E-2
2.884948443E1,-1.766926348E-1,-4.256200492E-1,7.750347257E-2
2.886894828E1,-1.229365394E-1,-5.102248192E-1,1.877645552E-1
2.888840974E1,-1.183550507E-1,-3.836230934E-1,2.407570779E-1
2.890787359E1,-4.016435891E-2,-1.550069451E-1,1.643989831E-1
2.892733505E1,-1.237001177E-2,4.566214234E-2,3.504836559E-2
2.894679880E1,-1.556178033E-1,1.527161920E-3,-9.353867173E-2
2.896626026E1,-5.830704570E-1,-1.368489861E0,-2.755763829E-1
2.898572411E1,-7.292198539E-1,-1.444389820E0,-5.032762289E-1
2.900518557E1,-9.017891288E-1,-1.964846611E0,6.253728271E-2
2.902464943E1,-2.681696415E-1,-6.298015714E-1,3.795761168E-1
2.904411088E1,3.097084463E-1,1.768148065E0,7.857248187E-2
2.906357474E1,4.850266278E-1,1.760512352E0,-1.022434905E-1
2.908303620E1,7.623592615E-1,1.176983714E0,-2.589302957E-1
2.910250005E1,9.686788321E-1,3.630063832E-1,-5.062541738E-2
2.912196151E1,8.265000582E-1,-3.268126398E-2,1.425605714E-1
2.914142536E1,7.588467598E-1,1.554650813E-1,1.463784724E-1
2.916088672E1,8.025236130E-1,6.962331533E-1,1.916588284E-2
2.918035057E1,7.475457788E-1,1.094364285E0,-1.576794684E-1
2.919981203E1,4.518872201E-1,9.909753799E-1,-2.259436101E-1
2.921927588E1,5.864302069E-2,2.916879356E-1,-2.490037531E-1
2.923873734E1,-1.919642538E-1,-1.374445739E-3,-2.389244884E-1
2.925820120E1,-1.849393100E-1,1.003345400E-1,-2.380081862E-1
2.927766265E1,-1.313359290E-2,5.589412898E-2,-2.311359644E-1
2.929712640E1,1.128572673E-1,-1.565341055E-1,-2.209039778E-1
2.931658786E1,1.351538301E-1,-3.071122766E-1,-1.949422210E-1
2.933605172E1,9.575305134E-2,-3.947713673E-1,-1.253036410E-1
2.935551318E1,7.559451461E-2,-5.122101307E-1,-8.025235683E-2
2.937497703E1,5.619955808E-2,-6.406444311E-1,-6.391172856E-2
2.939443849E1,-4.581485689E-2,-6.713404059E-1,-1.057559624E-1
2.941390234E1,-2.603811026E-1,-5.508472919E-1,-1.662315726E-1
2.943336370E1,-5.798633695E-1,-4.172206521E-1,-2.121991515E-1
2.945282755E1,-7.362447977E-1,-5.482511520E-1,-2.755763829E-1
2.947228901E1,5.711585656E-2,-8.591812849E-1,-1.708130687E-1
2.949175286E1,1.056185246E0,-1.765246511E0,1.356883347E-1
2.951121432E1,4.355465770E-1,-2.098625898E0,9.827287495E-2
2.953067818E1,-1.308014154E0,-2.067777216E-1,3.465894163E-1
2.955013963E1,-1.751807451E0,2.338390350E0,5.184714869E-2
2.956960349E1,-1.210581303E0,1.291673541E0,1.317177117E-1
2.958906495E1,3.176496923E-2,5.955931544E-1,4.783834815E-1
2.960852880E1,4.053087831E-1,7.938187718E-1,6.172025204E-1
2.962799026E1,8.704823256E-2,1.236084938E0,3.875173330E-1
2.964745411E1,-2.710712552E-1,1.615431905E0,1.306487024E-1
2.966691557E1,-4.094321132E-1,1.517693520E0,1.454621702E-1
2.968637943E1,-1.595884264E-1,5.490147471E-1,2.635118067E-1
2.970584088E1,2.306014597E-1,4.031707719E-2,2.599993348E-1
2.972530474E1,2.674060464E-1,1.724165827E-1,8.315397054E-2
2.974476620E1,1.377500147E-1,2.580903657E-2,-1.891390085E-1
2.976423005E1,1.262962967E-1,-9.850194305E-2,-2.958876193E-1
2.978369151E1,2.419024557E-1,-2.933678031E-1,-1.914297491E-1
2.980315536E1,3.683514595E-1,-4.243983030E-1,-4.115701467E-2
2.982261682E1,3.985892832E-1,-3.885099888E-1,1.181259751E-1
2.984208068E1,3.191768527E-1,-1.637117565E-1,2.355647236E-1
2.986154213E1,2.412915826E-1,7.834340632E-2,2.399934977E-1
2.988100599E1,2.121227980E-1,3.675878942E-1,1.886808574E-1
2.990046745E1,7.864884287E-2,6.956222653E-1,9.078978002E-2
2.991993130E1,-1.388190240E-1,8.245147467E-1,-2.710712515E-2
2.993939276E1,-2.794706225E-1,4.941896200E-1,-5.810851231E-2
2.995885661E1,-3.532325625E-1,-3.236056268E-1,-8.712458611E-2
2.997831807E1,-2.811505198E-1,-1.712864876E0,-3.894262947E-3
2.999778192E1,-2.672533393E-1,-3.252091408E0,1.740200967E-1
3.001724338E1,-5.980366468E-1,-1.134528637E0,4.482220486E-2
3.003670724E1,-4.651735425E-1,1.609017849E0,-1.677587330E-1
3.005616870E1,-1.496618688E-1,1.493564367E0,-6.834049523E-2
3.007563255E1,1.061377525E-1,4.651735425E-1,7.154753804E-2
3.009509401E1,4.147771895E-1,1.229365394E-1,1.563050300E-1
3.011455786E1,1.145371422E-2,6.391173005E-1,1.393535286E-1
3.013401932E1,-5.036579967E-1,9.271399975E-1,-2.398407906E-1
3.015348318E1,-3.820959330E-1,7.663298845E-1,-3.319286406E-1
3.017294463E1,8.949168772E-2,3.933969140E-1,-2.778671086E-1
3.019240849E1,4.883863926E-1,7.483093534E-3,-1.911243200E-1
3.021186995E1,6.137663722E-1,-2.689332068E-1,-1.052978188E-1
3.023133380E1,5.623010397E-1,-4.240928590E-1,-7.582359016E-2
3.025079536E1,5.115992427E-1,-6.354520917E-1,-6.009382382E-2
3.027025922E1,4.677697122E-1,-8.799507022E-1,-4.024071619E-2
3.028972068E1,4.001164436E-1,-1.030681610E0,-4.421133921E-2
3.030918453E1,2.922987938E-1,-1.018617034E0,-2.970330045E-2
3.032864599E1,1.689041108E-1,-6.983711720E-1,2.519817324E-3
3.034810984E1,7.192932814E-2,-1.145371497E-1,-1.763872057E-2
3.036757130E1,9.468403645E-3,5.051851869E-1,-7.559451740E-3
3.038703515E1,5.803215504E-2,8.504765034E-1,-8.017600514E-3
3.040649661E1,1.684459597E-1,8.535308242E-1,1.382081583E-2
3.042596047E1,2.121227980E-1,6.078104377E-1,4.528035223E-2
3.044542192E1,1.762344837E-1,2.893971801E-1,6.986765563E-2
3.046488578E1,1.240055487E-1,-1.237001177E-2,6.391172856E-2
3.048434724E1,1.119409725E-1,-2.645044625E-1,5.322159454E-2
3.050381109E1,1.421787739E-1,-3.856084049E-1,3.627009690E-2
3.052327265E1,1.658497900E-1,-3.332267404E-1,1.427896414E-2
3.054273651E1,1.663079411E-1,-1.430950761E-1,8.017600514E-3
3.056219797E1,1.432477981E-1,7.483093441E-2,1.702785492E-2
3.058166182E1,8.475748450E-2,2.252563834E-1,2.374736778E-2
3.060112328E1,2.412915789E-2,2.938259542E-1,3.214675933E-2
3.062058713E1,-7.941242307E-3,3.174969554E-1,3.168861195E-2
3.064004859E1,-9.926552884E-3,2.796233594E-1,2.160934173E-2
3.065951245E1,2.290742937E-3,2.000582218E-1,1.488982886E-2
3.067897401E1,1.511890348E-2,6.551524997E-2,3.000873141E-2
3.069843786E1,1.099556591E-2,-8.124501258E-2,5.123628303E-2
3.071789932E1,-1.725693047E-2,-1.195767820E-1,5.230529606E-2
3.073736318E1,-4.673115537E-2,-7.330377400E-2,4.237874225E-2
3.075682463E1,-6.368265301E-2,-2.153298259E-2,2.970330045E-2
3.077628849E1,-8.628465235E-2,9.773836471E-3,1.198822167E-2
3.079574995E1,-1.079703495E-1,3.497200832E-2,-3.817904799E-4
3.081521380E1,-1.137735620E-1,3.833176568E-2,2.672533505E-3
3.083467536E1,-1.246164143E-1,2.443459071E-2,1.901316643E-2
3.085413922E1,-1.543960720E-1,-1.527161949E-4,2.405280061E-2
3.087360068E1,-1.847866029E-1,-1.908952370E-2,1.336266659E-2
3.089306453E1,-1.820377111E-1,-2.458730713E-2,8.628465235E-3
3.091252599E1,-1.522580534E-1,-6.566796452E-3,1.061377581E-2
3.093198984E1,-1.175914705E-1,1.450803876E-2,1.870773360E-2
3.095145140E1,-8.445205539E-2,4.352411628E-2,2.359465137E-2
3.097091526E1,-5.528326333E-2,7.009673119E-2,2.664897591E-2
3.099037672E1,-5.513054505E-2,8.200860023E-2,3.046688065E-2
3.100984057E1,-7.696896046E-2,9.697478265E-2,2.038761228E-2
3.102930203E1,-8.826996386E-2,8.964440972E-2,1.275180187E-2
3.104876588E1,-8.811724186E-2,5.345066637E-2,1.382081583E-2
3.106822745E1,-9.178243577E-2,2.748891525E-2,1.580612548E-2
3.108769130E1,-9.819651395E-2,1.298087649E-2,1.580612548E-2
3.110715276E1,-1.006399691E-1,-1.557705179E-2,1.458439697E-2
3.112661661E1,-9.193515033E-2,-2.871064469E-2,1.519526169E-2
3.114607807E1,-7.391463965E-2,-3.711003438E-2,2.023489587E-2
3.116554193E1,-4.535670951E-2,-4.367683083E-2,2.130390890E-2
3.118500349E1,-1.252272818E-2,-5.024362728E-2,1.397353224E-2
3.120446734E1,5.039634649E-3,-6.261363626E-2,-6.872228696E-4
3.122392880E1,1.069013402E-2,-7.254019380E-2,-8.017600514E-3
3.124339265E1,2.535088919E-2,-7.315105945E-2,2.519817324E-3
3.126285411E1,4.917461425E-2,-5.940660089E-2,1.718057133E-2
3.128231807E1,8.429934084E-2,-6.215549260E-2,2.756527252E-2
3.130177953E1,1.156061590E-1,-7.819069177E-2,3.443750367E-2
3.132124338E1,1.301141977E-1,-9.117157012E-2,3.413207084E-2
3.134070484E1,1.221729591E-1,-8.628465235E-2,2.802342176E-2
3.136016870E1,9.972367436E-2,-6.780599058E-2,2.145662531E-2
3.137963026E1,8.200860023E-2,-4.031707719E-2,1.366809942E-2
3.139909411E1,8.842267841E-2,-4.886918236E-3,5.574141163E-3
3.141855557E1,1.174387559E-1,6.261364091E-3,9.850194678E-3
3.143801942E1,1.403461844E-1,1.374445739E-3,1.977674663E-2
3.145748099E1,1.331685185E-1,7.330377586E-3,2.237292193E-2
3.147694484E1,1.140789986E-1,2.382372692E-2,2.420551702E-2
3.149640630E1,1.012508348E-1,4.031707719E-2,1.779143699E-2
3.151587015E1,8.979712427E-2,5.390881747E-2,8.628465235E-3
3.153533161E1,7.773254067E-2,6.841685623E-2,-5.345066893E-4
3.155479557E1,7.605266571E-2,8.826996386E-2,-3.283398226E-3
3.157425703E1,8.582650125E-2,1.076649204E-1,-4.046979360E-3
3.159372088E1,9.758564830E-2,9.483675659E-2,-2.519817324E-3
3.161318234E1,9.285144508E-2,6.520981342E-2,1.145371469E-3
3.163264630E1,7.040216774E-2,6.001746282E-2,2.061668551E-3
3.165210776E1,3.787361458E-2,6.811141968E-2,1.145371469E-3
3.167157161E1,9.468403645E-3,8.613193035E-2,9.926552884E-4
3.169103307E1,-5.650499370E-3,9.330959618E-2,2.519817324E-3
3.171049703E1,4.581485991E-4,7.406735420E-2,8.628465235E-3
3.172995849E1,6.872228812E-3,5.940660089E-2,1.473711245E-2
3.174942234E1,9.468403645E-3,6.047561392E-2,1.702785492E-2
3.176888390E1,3.970621154E-3,5.681042373E-2,1.626427472E-2
3.178834776E1,-2.321286127E-2,6.185005978E-2,1.397353224E-2
3.180780922E1,-6.291907281E-2,5.925388262E-2,8.933897130E-3
3.182727307E1,-8.872810751E-2,3.848448023E-2,-1.908952487E-3
3.184673463E1,-7.391463965E-2,2.718348242E-2,-1.519526169E-2
3.186619849E1,-2.336557768E-2,1.328630932E-2,-1.290451828E-2
3.188565995E1,2.535088919E-2,6.719512399E-3,-7.406735327E-3
3.190512380E1,2.580903657E-2,2.046396956E-2,-6.032289471E-3
3.192458536E1,-1.450803876E-2,5.131264031E-2,-1.107192412E-2
3.194404922E1,-7.559451461E-2,8.536835015E-2,-1.611155830E-2
3.196351068E1,-1.339320987E-1,1.296560466E-1,-1.977674663E-2
3.198297463E1,-1.569922417E-1,1.656970680E-1,-1.550069358E-2
3.200243609E1,-1.493564397E-1,1.867718995E-1,-7.635809743E-5
3.202189995E1,-1.499672979E-1,1.965457499E-1,1.473711245E-2
3.204136151E1,-1.733328849E-1,1.956294477E-1,1.916588284E-2
3.206082536E1,-2.049451321E-1,1.980729103E-1,9.086613543E-3
3.208028682E1,-2.197586000E-1,2.147189677E-1,-4.199695308E-3
3.209975068E1,-2.109010667E-1,2.333503515E-1,-1.748600416E-2
3.211921224E1,-1.864664704E-1,2.313650399E-1,-2.970330045E-2
3.213867609E1,-1.565341055E-1,2.222020626E-1,-3.886627033E-2
3.215813755E1,-1.247691289E-1,2.165515572E-1,-4.176788032E-2
3.217760151E1,-9.422589093E-2,2.104429156E-1,-3.672824427E-2
3.219706297E1,-7.162389904E-2,2.063195854E-1,-2.878700197E-2
3.221652682E1,-6.078104675E-2,2.025016695E-1,-1.229365356E-2
3.223598838E1,-5.283980444E-2,1.844811589E-1,9.392046370E-3
3.225545224E1,-4.444041103E-2,1.548542231E-1,1.611155830E-2
3.227491370E1,-2.504545636E-2,1.374445707E-1,1.244636998E-2
3.229437765E1,6.566796452E-3,1.287397593E-1,1.137735695E-2
3.231383911E1,3.344484791E-2,1.064431891E-1,1.382081583E-2
3.233330297E1,3.283398226E-2,1.078176349E-1,1.733328775E-2
3.235276453E1,1.542433538E-2,1.130099818E-1,1.886045001E-2
3.237222838E1,-5.497782957E-3,9.636391699E-2,1.794415340E-2
3.239168984E1,-2.916879393E-2,5.894844979E-2,1.473711245E-2
3.241115380E1,-6.246092543E-2,1.267544460E-2,8.017600514E-3
3.243061526E1,-1.012508348E-1,-3.741546720E-2,-2.367100911E-3
3.245007911E1,-1.432477981E-1,-8.445205539E-2,-9.392046370E-3
3.246954068E1,-1.944077164E-1,-1.122464016E-1,-6.643154658E-3
3.248900453E1,-2.483165264E-1,-1.078176349E-1,-4.352411721E-3
3.250846599E1,-2.738201320E-1,-8.826996386E-2,2.367100911E-3
3.252792995E1,-2.368628234E-1,-7.620538026E-2,1.290451828E-2
3.254739140E1,-1.479819864E-1,-7.422006875E-2,7.864884101E-3
3.256685526E1,-4.825831577E-2,-8.246674389E-2,-3.436114406E-3
3.258631682E1,1.099556591E-2,-7.086031139E-2,-1.748600416E-2
3.260578068E1,1.970038936E-2,-2.825249545E-2,-3.260490671E-2
3.262524224E1,2.504545636E-2,1.496618707E-2,-2.603811212E-2
3.264470609E1,5.818486959E-2,6.658425927E-2,-8.399390499E-4
3.266416755E1,1.047633067E-1,1.345429718E-1,3.260490671E-2
3.268363151E1,1.240055487E-1,1.595884264E-1,4.879282415E-2
3.270309297E1,8.689551800E-2,1.111773923E-1,3.733910993E-2
3.272255682E1,3.451386094E-2,3.039052337E-2,1.198822167E-2
3.274201838E1,6.414080039E-3,-4.077522457E-2,-5.879573524E-3
3.276148224E1,-2.519817278E-2,-9.819651395E-2,-6.337722298E-3
3.278094380E1,-7.131846249E-2,-1.417206228E-1,1.298087649E-3
3.280040765E1,-9.651663154E-2,-1.666133702E-1,2.008217946E-2
3.281986911E1,-8.979712427E-2,-1.644753367E-1,4.176788032E-2
3.283933307E1,-6.902772188E-2,-1.394298822E-1,5.093085021E-2
3.285879453E1,-7.696896046E-2,-1.125518382E-1,4.298960790E-2
3.287825838E1,-1.339320987E-1,-7.360920310E-2,2.038761228E-2
3.289771995E1,-1.809686869E-1,-2.412915789E-2,6.490438245E-3
3.291718380E1,-1.658497900E-1,-6.108647794E-4,4.199695308E-3
3.293664536E1,-1.021671370E-1,-1.267544460E-2,9.544761851E-3
3.295610922E1,-6.322450191E-2,-3.283398226E-2,1.275180187E-2
3.297557078E1,-1.197294965E-1,-3.848448023E-2,3.817904799E-4
3.299503463E1,-2.223547846E-1,-5.115992576E-2,-1.488982886E-2
3.301449609E1,-2.590066791E-1,-6.780599058E-2,-1.702785492E-2
3.303396005E1,-1.783725172E-1,-7.681624591E-2,-1.382081583E-2
3.305342151E1,-4.382954910E-2,-8.979712427E-2,-8.170315996E-3
3.307288536E1,4.627300799E-2,-1.021671370E-1,-1.450803829E-3
3.309234692E1,5.238165334E-2,-1.291978955E-1,-3.130682046E-3
3.311181078E1,9.621120058E-3,-1.553123742E-1,-1.259908639E-2
3.313127234E1,-2.474002354E-2,-1.731801629E-1,-1.794415340E-2
3.315073620E1,-1.771507785E-2,-1.922696829E-1,-2.008217946E-2
3.317019776E1,3.543015569E-2,-2.011272311E-1,-1.794415340E-2
3.318966161E1,1.067486182E-1,-1.754709035E-1,-6.643154658E-3
3.320912307E1,1.550069451E-1,-1.215620935E-1,1.137735695E-2
3.322858703E1,1.565341055E-1,-7.803797722E-2,1.870773360E-2
3.324804849E1,1.153007299E-1,-4.459312931E-2,1.275180187E-2
3.326751245E1,5.971203372E-2,-1.282816008E-2,3.588830587E-3
3.328697390E1,1.389717404E-2,-2.290742937E-3,-4.046979360E-3
3.330643786E1,-1.267544460E-2,-1.527161920E-3,-6.795870606E-3
3.332589932E1,-1.511890348E-2,2.046396956E-2,-4.352411721E-3
3.334536318E1,3.054323897E-4,5.345066637E-2,2.977965865E-3
3.336482474E1,1.832594350E-2,7.055488229E-2,9.086613543E-3
3.338428859E1,1.252272818E-2,8.796452731E-2,7.254019380E-3
3.340375015E1,-4.734201822E-3,1.017089859E-1,2.672533505E-3
3.342321401E1,-8.857538924E-3,8.659008145E-2,1.756236190E-3
3.344267557E1,2.611446939E-2,4.245510325E-2,5.879573524E-3
3.346213943E1,1.043051630E-1,3.054323839E-3,3.894262947E-3
3.348160099E1,1.699731201E-1,-5.497782957E-3,-5.268708803E-3
3.350106484E1,1.942549944E-1,9.162971750E-3,-8.475748822E-3
3.352052640E1,1.965457499E-1,8.399390616E-3,-7.559451740E-3
3.353999026E1,1.948658675E-1,6.719512399E-3,-1.305723470E-2
3.355945182E1,1.721111536E-1,1.313359290E-2,-2.084576152E-2
3.357891568E1,1.308777779E-1,-3.512472380E-3,-2.802342176E-2
3.359837724E1,9.834922850E-2,-1.175914705E-2,-3.275762498E-2
3.361784109E1,9.285144508E-2,-6.872228812E-3,-2.298378758E-2
3.363730265E1,9.346231073E-2,-1.343902480E-2,-1.122464053E-2
3.365676651E1,7.819069177E-2,-4.321868345E-2,7.635809743E-5
3.367622807E1,2.107483521E-2,-6.291907281E-2,7.635809743E-5
3.369569193E1,-8.048143238E-2,-8.078686893E-2,-1.275180187E-2
3.371515349E1,-1.675296724E-1,-1.009454057E-1,-3.214675933E-2
3.373461734E1,-1.463021189E-1,-6.383536756E-2,-1.733328775E-2
3.375407890E1,-6.352993846E-2,6.398808211E-2,3.688096255E-2
3.377354276E1,1.542433538E-2,2.031125315E-2,5.795579776E-2
3.379300432E1,6.826414168E-2,-1.182023361E-1,2.267835476E-2
3.381246818E1,1.331685185E-1,-1.629481763E-1,-7.559451740E-3
3.383192974E1,2.235765159E-1,-7.712167501E-2,-1.641699113E-2
3.385139359E1,2.435823381E-1,3.573558852E-2,-1.603520010E-3
3.387085515E1,1.933387071E-1,2.794706449E-2,1.702785492E-2
3.389031901E1,1.220202371E-1,-2.504545636E-2,2.008217946E-2
3.390978057E1,7.559451461E-2,-3.955349326E-2,1.183550525E-2
3.392924442E1,5.513054505E-2,-4.856374860E-2,5.574141163E-3
3.394870599E1,2.779434808E-2,-6.154462695E-2,1.450803829E-3
3.396816984E1,-1.160643063E-2,-6.123919412E-2,-1.244636998E-2
3.398763140E1,-5.161807314E-2,-3.527744114E-2,-3.321577236E-2
3.400709526E1,-8.659008145E-2,-3.054323897E-4,-5.093085021E-2
3.402655682E1,-1.081230640E-1,1.206457894E-2,-5.734493211E-2
3.404602068E1,-1.098029464E-1,9.010255337E-3,-5.719221383E-2
3.406548224E1,-9.605848789E-2,6.108647794E-4,-4.619665071E-2
3.408494609E1,-7.559451461E-2,-1.572976820E-2,-3.382663801E-2
3.410440765E1,-5.864302069E-2,-5.024362728E-2,-3.229947388E-2
3.412387151E1,-5.757400393E-2,-6.032289565E-2,-3.443750367E-2
3.414333307E1,-7.406735420E-2,-6.001746282E-2,-3.581194952E-2
3.416279692E1,-9.346231073E-2,-7.131846249E-2,-3.962985426E-2
3.418225849E1,-1.024725661E-1,-8.032871783E-2,-3.978256881E-2
3.420172234E1,-9.483675659E-2,-8.078686893E-2,-3.382663801E-2
3.422118390E1,-7.513637096E-2,-7.254019380E-2,-2.695440874E-2
3.424064776E1,-4.886918142E-2,-5.085449293E-2,-2.145662531E-2
3.426010932E1,-2.290742844E-2,-2.855792828E-2,-1.320995111E-2
3.427957318E1,-6.108647794E-4,-1.237001177E-2,-6.643154658E-3
3.429903474E1,-1.069013379E-3,-8.704823442E-3,-6.948587019E-3
3.431849870E1,-2.275471389E-2,-2.657261863E-2,-1.626427472E-2
3.433796015E1,-4.688387364E-2,-2.443459071E-2,-2.267835476E-2
3.435742411E1,-5.406153202E-2,-1.404988952E-2,-2.237292193E-2
3.437688557E1,-3.756818548E-2,-1.756236330E-2,-2.130390890E-2
3.439634953E1,-1.664606482E-2,-2.809977904E-2,-2.054032870E-2
3.441581099E1,-1.191186346E-2,-2.886336111E-2,-1.824958436E-2
3.443527495E1,-2.641990222E-2,-2.519817278E-2,-1.366809942E-2
3.445473640E1,-3.817904741E-2,-5.803215317E-3,-1.259908639E-2
3.447420036E1,-2.474002354E-2,3.359756246E-2,-1.580612548E-2
3.449366182E1,8.704823442E-3,5.650499091E-2,-1.443168055E-2
3.451312578E1,3.665188700E-2,7.987056673E-2,-9.926552884E-4
3.453258734E1,5.054906011E-2,7.620538026E-2,8.781181648E-3
3.455205120E1,5.299251899E-2,5.467239767E-2,9.086613543E-3
3.457151276E1,4.978547990E-2,4.688387364E-2,5.726857111E-3
3.459097661E1,4.230238497E-2,3.390299529E-2,5.879573524E-3
3.461043818E1,3.619373962E-2,1.557705179E-2,4.046979360E-3
3.462990203E1,3.924806044E-2,5.955931731E-3,3.436114406E-3
3.464936359E1,5.314523727E-2,8.552107029E-3,6.337722298E-3
3.466882745E1,6.750056148E-2,1.634063199E-2,9.086613543E-3
3.468828901E1,6.948586553E-2,2.733619884E-2,6.337722298E-3
3.470775297E1,6.658425927E-2,2.855792828E-2,-2.290742996E-4
3.472721442E1,6.551524997E-2,1.771507785E-2,-5.268708803E-3
3.474667838E1,5.910116807E-2,-3.207040019E-3,-1.183550525E-2
3.476613984E1,4.749473557E-2,-2.855792828E-2,-2.008217946E-2
3.478560380E1,3.604102135E-2,-4.306596518E-2,-2.527453005E-2
3.480506526E1,2.657261863E-2,-4.993819445E-2,-2.771798894E-2
3.482452922E1,1.023198478E-2,-4.214967042E-2,-2.985601686E-2
3.484399078E1,-5.497782957E-3,-2.993237413E-2,-3.214675933E-2
3.486345463E1,-8.093958721E-3,-3.023780696E-2,-2.588539571E-2
3.488291620E1,-3.512472380E-3,-4.902189970E-2,-1.687514037E-2
3.490238005E1,-1.679878100E-3,-4.871646687E-2,-1.824958436E-2
3.492184161E1,-3.512472380E-3,-5.192350596E-2,-2.924515121E-2
3.494130547E1,-4.123337101E-3,-4.428769648E-2,-3.550651670E-2
3.496076703E1,-2.748891478E-3,-4.199695215E-2,-3.291033953E-2
3.498023099E1,-9.162971750E-3,-5.467239767E-2,-2.863428742E-2
3.499969245E1,-2.000582218E-2,-6.032289565E-2,-2.985601686E-2
3.501915640E1,-2.916879393E-2,-6.276635826E-2,-3.397935256E-2
3.503861786E1,-3.863719851E-2,-7.712167501E-2,-3.672824427E-2
3.505808182E1,-4.978547990E-2,-8.613193035E-2,-3.794997558E-2
3.507754338E1,-5.803215504E-2,-7.055488229E-2,-3.810269013E-2
3.509700724E1,-5.787943676E-2,-4.963276163E-2,-3.031416424E-2
3.511646880E1,-5.726857483E-2,-3.894263133E-2,-1.962403022E-2
3.513593265E1,-6.307178736E-2,-2.535088919E-2,-1.565340906E-2
3.515539422E1,-7.177661359E-2,-3.665188793E-3,-1.748600416E-2
3.517485818E1,-7.345648855E-2,1.756236330E-2,-1.458439697E-2
3.519431963E1,-6.597339362E-2,3.420842811E-2,-6.490438245E-3
3.521378359E1,-5.711585656E-2,4.184423760E-2,-9.926552884E-4
3.523324505E1,-5.085449293E-2,3.940077871E-2,8.399390499E-4
3.525270901E1,-4.581485689E-2,1.710421406E-2,1.603520010E-3
3.527217057E1,-3.970621154E-2,-3.817904973E-3,4.657844082E-3
3.529163443E1,-4.138609022E-2,-7.330377586E-3,1.183550525E-2
3.531109599E1,-4.184423760E-2,-1.679878123E-2,1.641699113E-2
3.533055984E1,-3.329212964E-2,-1.343902480E-2,1.366809942E-2
3.535002140E1,-1.817322709E-2,-1.389717404E-2,1.244636998E-2
3.536948536E1,-9.162971750E-3,-9.162971750E-3,1.672242396E-2
3.538894682E1,-6.108647678E-3,4.581485991E-4,2.298378758E-2
3.540841078E1,-1.985310577E-3,-3.207040019E-3,2.878700197E-2
3.542787224E1,-4.581485991E-4,-2.901607659E-3,3.275762498E-2
3.544733620E1,-4.581485875E-3,9.010255337E-3,3.016144782E-2
3.546679776E1,-7.788525894E-3,-2.901607659E-3,2.267835476E-2
3.548626161E1,-1.679878100E-3,-1.099556591E-2,1.931859925E-2
3.550572318E1,5.497782957E-3,2.290742937E-3,2.115119249E-2
3.552518703E1,1.191186346E-2,1.038470119E-2,2.542724647E-2
3.554464859E1,9.162971750E-3,9.010255337E-3,3.077231348E-2
3.556411255E1,2.290742937E-3,-3.054323897E-4,2.893971838E-2
3.558357411E1,-3.970621154E-3,-4.276053514E-3,2.542724647E-2
3.560303797E1,-4.428769462E-3,1.527161949E-4,2.512181364E-2
3.562249953E1,3.512472380E-3,1.007926930E-2,2.863428742E-2
3.564196338E1,1.466075517E-2,1.084284950E-2,3.061959706E-2
3.566142495E1,2.138026804E-2,1.237001177E-2,2.939786762E-2
3.568088890E1,1.588248461E-2,1.298087649E-2,2.344193682E-2
3.570035036E1,1.023198478E-2,1.007926930E-2,1.886045001E-2
3.571981432E1,7.177661173E-3,1.389717404E-2,2.054032870E-2
3.573927588E1,3.665188793E-3,1.252272818E-2,2.390008420E-2
3.575873974E1,1.832594397E-3,1.786779426E-2,1.855501719E-2
3.577820130E1,4.734201822E-3,1.237001177E-2,1.504254527E-2
3.579766515E1,6.108647678E-3,1.084284950E-2,1.641699113E-2
3.581712672E1,5.192350596E-3,2.428187430E-2,1.870773360E-2
3.583659068E1,4.276053514E-3,2.031125315E-2,1.931859925E-2
3.585605213E1,1.985310577E-3,1.038470119E-2,1.824958436E-2
3.587551609E1,-7.635809598E-4,1.374445762E-2,1.626427472E-2
3.589497765E1,3.207040019E-3,1.756236330E-2,1.519526169E-2
3.591444151E1,1.038470119E-2,2.596175298E-2,1.305723470E-2
3.593390307E1,2.076940238E-2,2.962694131E-2,1.382081583E-2
3.595336703E1,2.871064469E-2,2.947422490E-2,1.855501719E-2
3.597282849E1,2.657261863E-2,3.787361458E-2,2.267835476E-2
3.599229245E1,1.725693047E-2,5.222893879E-2,2.023489587E-2
3.601175401E1,1.420260593E-2,7.024945319E-2,1.519526169E-2
3.603121786E1,1.313359290E-2,8.414662629E-2,1.168278884E-2
3.605067943E1,9.162971750E-3,8.613193035E-2,1.259908639E-2
3.607014328E1,5.497782957E-3,8.506292105E-2,1.488982886E-2
3.608960484E1,1.007926930E-2,9.178243577E-2,1.763872057E-2
3.610906880E1,2.015853859E-2,1.065959036E-1,1.855501719E-2
3.612853026E1,3.008509055E-2,1.525634825E-1,1.214093715E-2
3.614799422E1,4.444041103E-2,1.641699076E-1,1.091920771E-2
3.616745578E1,6.001746282E-2,1.447749585E-1,1.947131567E-2
3.618691963E1,6.918043643E-2,1.342375278E-1,2.038761228E-2
3.620638120E1,7.727439702E-2,1.237001196E-1,1.336266659E-2
3.622584515E1,7.574722916E-2,1.145371497E-1,4.963276442E-3
3.624530661E1,5.574141070E-2,1.075121984E-1,4.046979360E-3
3.626477057E1,3.237583488E-2,6.520981342E-2,1.214093715E-2
3.628423213E1,5.650499370E-3,5.482511222E-2,1.595884189E-2
3.630369599E1,-1.328630932E-2,6.200277433E-2,1.626427472E-2
3.632315755E1,-1.343902480E-2,5.528326333E-2,1.397353224E-2
3.634262151E1,-2.748891478E-3,4.596757516E-2,1.214093715E-2
3.636208307E1,5.345067009E-3,4.062250629E-2,1.259908639E-2
3.638154692E1,1.175914705E-2,2.916879393E-2,1.244636998E-2
3.640100849E1,1.664606482E-2,3.970621154E-3,8.475748822E-3
3.642047234E1,2.061668597E-2,-3.207040206E-2,7.254019380E-3
3.643993390E1,2.351829410E-2,-5.665770918E-2,1.107192412E-2
3.645939786E1,2.061668597E-2,-6.276635826E-2,1.504254527E-2
3.647885942E1,1.710421406E-2,-5.986474827E-2,1.580612548E-2
3.649832328E1,1.328630932E-2,-5.436696485E-2,1.473711245E-2
3.651778484E1,6.566796452E-3,-5.345066637E-2,1.137735695E-2
3.653724880E1,-1.527161920E-3,-4.932733253E-2,9.544761851E-3
3.655671026E1,-2.290742937E-3,-5.100720748E-2,1.000291109E-2
3.657617422E1,1.832594397E-3,-5.971203372E-2,1.290451828E-2
3.659563578E1,1.374445739E-3,-7.238747925E-2,1.397353224E-2
3.661509963E1,-2.901607659E-3,-8.048143238E-2,1.015562657E-2
3.663456120E1,-4.734201822E-3,-8.720094711E-2,2.825249685E-3
3.665402515E1,-3.054323897E-4,-9.636391699E-2,7.635809743E-5
3.667348672E1,-1.527161949E-4,-1.027780026E-1,8.399390499E-4
3.669295057E1,3.817904973E-3,-1.240055487E-1,2.367100911E-3
3.671241213E1,1.435532235E-2,-1.350011230E-1,4.963276442E-3
3.673187609E1,1.725693047E-2,-1.186604798E-1,4.963276442E-3
3.675133755E1,1.282816008E-2,-9.957095981E-2,6.490438245E-3
3.677080151E1,6.872228812E-3,-8.536835015E-2,6.032289471E-3
3.679026307E1,3.512472380E-3,-6.658425927E-2,1.145371469E-3
3.680972692E1,6.719512399E-3,-4.734202102E-2,9.926552884E-4
3.682918849E1,7.941242307E-3,-2.840521187E-2,4.810560029E-3
3.684865245E1,9.468403645E-3,-1.588248461E-2,5.879573524E-3
3.686811401E1,1.267544460E-2,-6.566796452E-3,5.879573524E-3
3.688757786E1,1.420260593E-2,-6.414080039E-3,3.588830587E-3
3.690703942E1,1.282816008E-2,-1.175914705E-2,-1.145371469E-3
3.692650338E1,1.496618707E-2,-1.130099874E-2,-4.352411721E-3
3.694596495E1,1.618791744E-2,-1.511890348E-2,-2.672533505E-3
3.696542880E1,9.926552884E-3,-1.802051067E-2,2.061668551E-3
3.698489036E1,-2.596175298E-3,-1.649334840E-2,6.948587019E-3
3.700435432E1,-1.221729536E-2,-9.773836471E-3,9.544761851E-3
3.702381578E1,-1.511890348E-2,-1.221729559E-3,8.170315996E-3
3.704327974E1,-2.138026804E-2,7.024944760E-3,-6.872228696E-4
3.706274130E1,-3.039052337E-2,1.511890348E-2,-1.000291109E-2
3.708220526E1,-2.641990222E-2,2.535088919E-2,-1.366809942E-2
3.710166672E1,-1.389717404E-2,3.527744114E-2,-9.239329956E-3
3.712113068E1,1.221729559E-3,2.748891525E-2,-2.519817324E-3
3.714059224E1,-3.054323897E-4,1.527161989E-2,5.345066893E-4
3.716005609E1,-1.649334840E-2,1.893680729E-2,-1.756236190E-3
3.717951765E1,-2.183841541E-2,2.199113183E-2,-3.588830587E-3
3.719898161E1,-1.298087649E-2,7.635809947E-3,-7.635809743E-5
3.721844318E1,1.679878100E-3,-1.343902480E-2,4.352411721E-3
3.723790703E1,9.926552884E-3,-2.260199748E-2,2.367100911E-3
3.725736859E1,3.665188793E-3,-1.725693047E-2,-1.603520010E-3
3.727683255E1,-8.399390616E-3,-8.704823442E-3,-2.214384731E-3
3.729629411E1,-1.527161989E-2,-5.345067009E-3,-2.367100911E-3
3.731575797E1,-9.315688163E-3,-1.740964688E-2,-2.214384731E-3
3.733521953E1,4.734201822E-3,-3.359756246E-2,-5.345066893E-4
3.735468349E1,1.511890348E-2,-3.924806044E-2,-3.817904799E-4
3.737414505E1,1.130099874E-2,-3.894263133E-2,-1.145371469E-3
3.739360890E1,3.207040019E-3,-3.176496923E-2,-2.367100911E-3
3.741307047E1,1.527161949E-4,-2.306014486E-2,-2.825249685E-3
3.743253442E1,-7.483093534E-3,-1.542433538E-2,-3.588830587E-3
3.745199599E1,-1.756236330E-2,-1.023198478E-2,-4.963276442E-3
3.747145984E1,-2.199113183E-2,-9.773836471E-3,-1.000291109E-2
3.749092140E1,-2.107483521E-2,-7.330377586E-3,-1.382081583E-2
3.751038536E1,-1.970038936E-2,2.901607659E-3,-1.153007243E-2
3.752984692E1,-1.603520103E-2,2.138026804E-2,-8.475748822E-3
3.754931078E1,-1.450803876E-2,2.214384824E-2,-5.879573524E-3
3.756877234E1,-1.771507785E-2,1.450803876E-2,-5.574141163E-3
3.758823630E1,-2.489273995E-2,1.557705179E-2,-5.879573524E-3
3.760769786E1,-2.504545636E-2,1.252272818E-2,-8.170315996E-3
3.762716172E1,-1.420260593E-2,-7.635809598E-4,-9.697478265E-3
3.764662328E1,-2.290742937E-3,-1.114828233E-2,-8.170315996E-3
3.766608724E1,-7.483093534E-3,-1.023198478E-2,-7.559451740E-3
3.768554880E1,-1.542433538E-2,1.985310577E-3,-8.781181648E-3
3.770501265E1,-1.939495653E-2,9.926552884E-3,-6.643154658E-3
3.772447422E1,-2.672533318E-2,1.634063199E-2,-3.588830587E-3
3.774393818E1,-2.901607752E-2,2.565632015E-2,-2.214384731E-3
3.776339974E1,-1.985310577E-2,3.237583488E-2,-1.450803829E-3
3.778286359E1,-9.468403645E-3,3.833176568E-2,2.290742996E-4
3.780232515E1,-4.276053514E-3,4.535670951E-2,3.817904799E-4
3.782178911E1,-2.138026757E-3,4.245510325E-2,-6.872228696E-4
3.784125068E1,-1.527161920E-3,4.031707719E-2,-5.345066893E-4
3.786071453E1,-3.970621154E-3,3.833176568E-2,9.926552884E-4
3.788017609E1,-1.160643063E-2,2.977965772E-2,3.741546767E-3
3.789964005E1,-1.374445762E-2,3.222311661E-2,4.199695308E-3
3.791910161E1,-1.985310577E-3,4.276053607E-2,4.810560029E-3
3.793856557E1,1.313359290E-2,3.436114267E-2,7.101302966E-3
3.795802703E1,1.572976820E-2,3.543015569E-2,9.086613543E-3
3.797749099E1,1.282816008E-2,3.069595434E-2,9.850194678E-3
3.799695255E1,1.053741761E-2,2.397644334E-2,1.046105940E-2
3.801641651E1,1.374445739E-3,3.344484791E-2,1.076649129E-2
3.803587797E1,-4.276053514E-3,3.985892609E-2,7.712167688E-3
3.805534192E1,-1.374445739E-3,3.298669681E-2,5.879573524E-3
3.807480349E1,4.276053514E-3,2.977965772E-2,5.879573524E-3
3.809426745E1,1.160643063E-2,3.069595434E-2,8.781181648E-3
3.811372890E1,1.542433538E-2,3.115410358E-2,9.086613543E-3
3.813319286E1,1.588248461E-2,3.023780696E-2,8.475748822E-3
3.815265442E1,1.695149764E-2,2.657261863E-2,9.086613543E-3
3.817211838E1,1.740964688E-2,2.076940238E-2,8.475748822E-3
3.819157995E1,1.939495653E-2,1.603520103E-2,7.101302966E-3
3.821104380E1,2.214384824E-2,8.704823442E-3,6.337722298E-3
3.823050536E1,2.321286127E-2,1.069013379E-3,5.879573524E-3
3.824996932E1,2.015853859E-2,-2.290742937E-3,4.963276442E-3
3.826943088E1,1.664606482E-2,-4.276053514E-3,3.741546767E-3
3.828889474E1,1.175914705E-2,1.069013379E-3,3.283398226E-3
3.830835630E1,6.719512399E-3,6.566796452E-3,4.963276442E-3
3.832782026E1,3.054323839E-3,7.330377586E-3,5.268708803E-3
3.834728182E1,6.872228812E-3,9.468403645E-3,5.879573524E-3
3.836674568E1,1.710421406E-2,-1.038470119E-2,7.864884101E-3
3.838620724E1,2.351829410E-2,-2.764163166E-2,9.697478265E-3
3.840567120E1,2.397644334E-2,-5.299251899E-2,9.239329956E-3
3.842513276E1,1.588248461E-2,-6.856957078E-2,9.086613543E-3
3.844459672E1,7.483093534E-3,-6.123919412E-2,8.628465235E-3
3.846405818E1,1.114828233E-2,-5.971203372E-2,1.061377581E-2
3.848352213E1,1.908952370E-2,-6.154462695E-2,1.397353224E-2
3.850298370E1,2.504545636E-2,-4.825831577E-2,1.458439697E-2
3.852244765E1,2.886336111E-2,-2.840521187E-2,1.305723470E-2
3.854190922E1,2.764163166E-2,-2.336557768E-2,1.168278884E-2
3.856137307E1,2.504545636E-2,-2.535088919E-2,1.076649129E-2
3.858083463E1,2.657261863E-2,-2.794706449E-2,1.107192412E-2
3.860029859E1,2.611446939E-2,-3.329212964E-2,1.076649129E-2
3.861976015E1,2.183841541E-2,-3.863719851E-2,8.781181648E-3
3.863922401E1,1.924224012E-2,-4.382954910E-2,5.726857111E-3
3.865868557E1,2.107483521E-2,-4.123337194E-2,3.741546767E-3
3.867814953E1,2.199113183E-2,-3.573558852E-2,6.337722298E-3
