"Time (s)","Acceleration x (m/s^2)","Acceleration y (m/s^2)","Acceleration z (m/s^2)"
1.593193800E-2,1.026760197E1,-1.591227055E-1,-9.272187948E-2
3.539579200E-2,1.020957565E1,-2.476571500E-1,-2.416750938E-1
5.485954200E-2,1.021496010E1,-3.894318938E-1,-3.427718580E-1
7.432339700E-2,1.025444126E1,-5.413761139E-1,-2.925225794E-1
9.378725100E-2,1.028195858E1,-6.843472719E-1,-1.776670814E-1
1.132510010E-1,1.021376324E1,-7.818548083E-1,-5.084748194E-2
1.327148550E-1,1.011924744E1,-7.878368497E-1,6.101697683E-2
1.521787090E-1,1.004028416E1,-6.783652306E-1,1.465603858E-1
1.716424590E-1,9.970891953E0,-5.246263742E-1,2.506481707E-1
1.911063130E-1,9.869196892E0,-4.342973232E-1,2.841476798E-1
2.105701670E-1,9.722636223E0,-3.427718580E-1,2.237289101E-1
2.300339170E-1,9.603593826E0,-1.585244983E-1,1.232303679E-1
2.494977720E-1,9.684949875E0,-8.614161611E-2,2.153540403E-2
2.689616260E-1,9.784252167E0,-6.999006122E-2,-8.374879137E-3
2.884253760E-1,9.809376717E0,6.520441920E-2,-4.845465720E-2
3.078892300E-1,9.840482712E0,2.356930375E-1,-1.262213886E-1
3.273530840E-1,9.930811882E0,3.038884699E-1,-1.411765367E-1
3.468168340E-1,9.944570541E0,2.315055877E-1,-1.088734269E-1
3.662806880E-1,9.893125534E0,2.153540403E-1,-1.034895778E-1
3.857444380E-1,9.924830437E0,3.481557071E-1,-2.087737769E-1
4.052082920E-1,9.952945709E0,5.676971674E-1,-2.207378894E-1
4.246721470E-1,9.907482147E0,6.801598072E-1,-1.800599098E-1
4.441358970E-1,9.840482712E0,5.497509837E-1,-1.710868180E-1
4.635997510E-1,9.826126099E0,2.931207716E-1,-1.399801224E-1
4.830636050E-1,9.824930191E0,8.853443712E-2,-4.247260094E-2
5.025273550E-1,9.903294563E0,6.460621208E-2,7.597211748E-2
5.219912090E-1,9.936794281E0,1.214357466E-1,1.872383654E-1
5.414550630E-1,9.885947227E0,1.435693540E-2,1.986042857E-1
5.609188130E-1,9.777072906E0,-2.961117923E-1,9.631111473E-2
5.803826670E-1,9.819545746E0,-5.335994363E-1,-7.776673418E-3
5.998464170E-1,9.939187050E0,-5.682953596E-1,4.187439755E-2
6.193102720E-1,9.927223206E0,-4.725824594E-1,1.962114573E-1
6.387741260E-1,9.704689980E0,-2.829512656E-1,3.403790295E-1
6.582378760E-1,9.597611427E0,-1.208375469E-1,4.103690982E-1
6.777017300E-1,9.742377281E0,-3.349951655E-2,3.990031779E-1
6.971654800E-1,9.891330719E0,-5.982056633E-2,3.571287692E-1
7.166293340E-1,9.890133858E0,-2.027917206E-1,3.678964674E-1
7.360931880E-1,9.788438797E0,-3.146561682E-1,3.768695593E-1
7.555569380E-1,9.657432556E0,-3.978067636E-1,4.091726840E-1
7.750207920E-1,9.738788605E0,-4.917250574E-1,4.319044948E-1
7.944846470E-1,1.003789139E1,-5.102694035E-1,3.930211067E-1
8.139483970E-1,1.017607689E1,-5.180460811E-1,3.320041299E-1
8.334122510E-1,1.009172916E1,-5.539384484E-1,1.639083475E-1
8.528761050E-1,1.009771156E1,-1.944168359E-1,-1.357926875E-1
8.723398550E-1,1.026580715E1,4.313062727E-1,-3.672982752E-1
8.918037090E-1,1.023350430E1,7.322037220E-1,-4.564309120E-1
9.112674590E-1,1.017966557E1,6.466603279E-1,-4.498506486E-1
9.307313130E-1,1.028435135E1,3.888336718E-1,-5.449653864E-1
9.501950630E-1,1.035494041E1,-1.256231871E-2,-6.675975323E-1
9.696589170E-1,1.024786091E1,-3.678964674E-1,-7.268198729E-1
9.891227720E-1,9.969695091E0,-4.277170599E-1,-8.303094506E-1
1.008586522E0,9.515059471E0,-2.285145670E-1,-1.023529887E0
1.028050376E0,9.104091644E0,-8.973085321E-3,-1.333998680E0
1.047514230E0,9.174679756E0,1.567298770E-1,-1.537986755E0
1.066977980E0,9.780662537E0,2.518445849E-1,-1.485344648E0
1.086441834E0,1.050628567E1,4.235295951E-1,-1.439282775E0
1.105905584E0,1.086042404E1,7.136593461E-1,-1.507478237E0
1.125369438E0,1.085743237E1,7.339983582E-1,-1.731805444E0
1.144833188E0,1.057089233E1,4.977070987E-1,-1.883151412E0
1.164297042E0,1.002891827E1,3.942175210E-1,-1.924427629E0
1.183760897E0,9.572486877E0,3.553341627E-1,-1.881356835E0
1.203224647E0,9.098708153E0,3.822534084E-1,-1.792224169E0
1.222688501E0,8.590831757E0,6.502495408E-1,-1.654636860E0
1.242152251E0,8.352746010E0,9.822536707E-1,-1.617548108E0
1.261616105E0,8.369495392E0,1.317847013E0,-1.555932879E0
1.281079855E0,8.745168686E0,1.594218135E0,-1.421934843E0
1.300543709E0,9.370891571E0,1.639681697E0,-1.377667665E0
1.320007563E0,1.009890842E1,1.578066587E0,-1.238883972E0
1.339471313E0,1.054397297E1,1.505085468E0,-1.223330617E0
1.358935167E0,1.068514919E1,1.359721422E0,-1.311864972E0
1.378398917E0,1.051406288E1,1.302891970E0,-1.328614831E0
1.397862772E0,1.026401234E1,1.456032634E0,-1.207179070E0
1.417326522E0,1.006720352E1,1.687538147E0,-1.080957651E0
1.436790376E0,9.887741089E0,1.899901152E0,-1.078564763E0
1.456254230E0,9.625128746E0,2.038684845E0,-1.144367456E0
1.475717980E0,9.462417603E0,2.027318954E0,-1.266401410E0
1.495181834E0,9.392427444E0,2.005185366E0,-1.190429211E0
1.514645584E0,9.391230583E0,1.878963947E0,-1.028315544E0
1.534109438E0,9.400203705E0,1.728814363E0,-8.889335990E-1
1.553573188E0,9.509077072E0,1.454836130E0,-8.374879360E-1
1.573037042E0,9.646066666E0,1.192223907E0,-8.141579032E-1
1.592500792E0,9.703494072E0,1.094716311E0,-8.446664214E-1
1.611964647E0,9.790832520E0,1.250249863E0,-8.757730722E-1
1.631428501E0,9.879366875E0,1.520638824E0,-8.159525394E-1
1.650892251E0,9.887741089E0,1.667199135E0,-7.130611539E-1
1.670356105E0,9.922437668E0,1.674975872E0,-4.677968323E-1
1.689819855E0,9.975079536E0,1.399203062E0,-2.751746178E-1
1.709283709E0,9.976275444E0,1.065404296E0,-1.549352705E-1
1.728747459E0,9.760323524E0,9.332008362E-1,-1.621137410E-1
1.748211313E0,9.507282257E0,1.098305583E0,-2.608176768E-1
1.767675167E0,9.429515839E0,1.304088354E0,-2.428714931E-1
1.787138917E0,9.537193298E0,1.337587833E0,-1.722832322E-1
1.806602772E0,9.668798447E0,1.284945726E0,-3.176472187E-1
1.826066522E0,9.936794281E0,1.375872970E0,-6.466603279E-1
1.845530376E0,1.021316528E1,1.541576028E0,-1.028315544E0
1.864994126E0,1.026341438E1,1.692323804E0,-1.262213945E0
1.884457980E0,9.851848602E0,1.670190215E0,-1.242473125E0
1.903921730E0,9.230313301E0,1.469791293E0,-1.077368379E0
1.923385584E0,8.822935104E0,1.211964726E0,-6.370890141E-1
1.942849438E0,8.743971825E0,9.260223508E-1,-2.231307179E-1
1.962313188E0,9.040083885E0,7.818548083E-1,9.571290575E-3
1.981777042E0,9.589237213E0,7.405785918E-1,4.785645287E-3
2.001240792E0,1.013898754E1,7.429714203E-1,-1.513460279E-1
2.020704647E0,1.037228775E1,6.993024349E-1,-4.606183469E-1
2.040168397E0,1.016650486E1,8.542376757E-1,-7.651050687E-1
2.059632251E0,9.912267685E0,9.816554785E-1,-7.944171429E-1
2.079096001E0,9.709476471E0,1.019342422E0,-6.119644046E-1
2.098559855E0,9.629914284E0,8.045865893E-1,-4.055834413E-1
2.118023709E0,9.752547264E0,5.778666735E-1,-1.537388563E-1
2.137487459E0,9.745966911E0,3.960121572E-1,-1.848455518E-1
2.156951313E0,9.950552940E0,2.356930375E-1,-3.146561682E-1
2.176415063E0,1.012104130E1,1.740778536E-1,-3.457628787E-1
2.195878917E0,1.012522888E1,2.608176768E-1,-3.804588020E-1
2.215342667E0,1.002054310E1,4.307080805E-1,-5.371887088E-1
2.234806522E0,9.811170578E0,6.119644046E-1,-4.773681164E-1
2.254270272E0,9.695118904E0,7.441678643E-1,-3.906283081E-1
2.273734126E0,9.809376717E0,7.800601721E-1,-2.949153781E-1
2.293197876E0,9.985248566E0,6.981059909E-1,-2.333002090E-1
2.312661730E0,1.007438183E1,6.245267391E-1,-2.452643216E-1
2.332125584E0,1.003789139E1,6.430711150E-1,-3.278166950E-1
2.351589334E0,9.883553505E0,7.172485590E-1,-3.367897868E-1
2.371053188E0,9.750154495E0,8.494520187E-1,-3.080759048E-1
2.390516938E0,9.665806770E0,8.757730722E-1,-2.656033039E-1
2.409980792E0,9.683753014E0,8.243274093E-1,-2.380858511E-1
2.429444542E0,9.750154495E0,7.986045480E-1,-2.279163599E-1
2.448908397E0,9.784850121E0,7.453642488E-1,-2.045863420E-1
2.468372147E0,9.746564865E0,7.429714203E-1,-1.776670814E-1
2.487836001E0,9.741181374E0,8.051848412E-1,-1.812563092E-1
2.507299751E0,9.814760208E0,8.566305041E-1,-2.021935135E-1
2.526763605E0,9.885348320E0,8.380861282E-1,-2.374876440E-1
2.546227355E0,9.860821724E0,7.435696125E-1,-2.883351147E-1
2.565691209E0,9.743574142E0,6.735795736E-1,-3.152543902E-1
2.585154959E0,9.670592308E0,6.783652306E-1,-3.002992272E-1
2.604618813E0,9.723235130E0,7.579265833E-1,-2.416750938E-1
2.624082563E0,9.762716293E0,7.782655358E-1,-8.434699476E-2
2.643546417E0,9.723235130E0,6.729813814E-1,1.794616925E-3
2.663010167E0,9.778269768E0,5.676971674E-1,-4.725824669E-2
2.682474022E0,9.931410789E0,5.431707501E-1,-1.274178028E-1
2.701937772E0,9.970293999E0,5.904290080E-1,-1.375873089E-1
2.721401626E0,9.882357597E0,6.610172391E-1,-1.184447184E-1
2.740865376E0,9.784850121E0,6.813562512E-1,-8.913264424E-2
2.760329230E0,9.783055305E0,5.922235847E-1,-9.870393574E-2
2.779792980E0,9.870393753E0,4.923232496E-1,-1.298106313E-1
2.799256834E0,9.849455833E0,5.282155871E-1,-1.830509305E-1
2.818720584E0,9.745368004E0,5.581258535E-1,-2.757728100E-1
2.838184438E0,9.671191216E0,4.313062727E-1,-3.092723191E-1
2.857648292E0,9.656235695E0,3.194418252E-1,-2.656033039E-1
2.877112042E0,9.755537987E0,3.637090325E-1,-2.608176768E-1
2.896575897E0,9.833903313E0,4.803591371E-1,-2.608176768E-1
2.916039647E0,9.890732765E0,5.150550604E-1,-3.535395563E-1
2.935503501E0,9.860223770E0,4.737788737E-1,-4.007977843E-1
2.954967251E0,9.779465675E0,3.421736360E-1,-3.678964674E-1
2.974431105E0,9.834501266E0,2.691925466E-1,-3.008974493E-1
2.993894855E0,9.912267685E0,3.810569942E-1,-1.674975902E-1
3.013358709E0,9.894321442E0,6.089733839E-1,7.178467698E-3
3.032822459E0,9.870991707E0,6.765705943E-1,8.853443712E-2
3.052286313E0,9.759127617E0,5.168496966E-1,2.452643216E-2
3.071750063E0,9.735796928E0,3.122633696E-1,7.178467698E-3
3.091213917E0,9.763913155E0,2.662015259E-1,1.100698411E-1
3.110677667E0,9.889535904E0,4.277170599E-1,1.280160099E-1
3.130141522E0,1.004566765E1,6.927221417E-1,1.345962733E-1
3.149605272E0,1.009651470E1,8.458628058E-1,1.884347796E-1
3.169069126E0,1.006421185E1,9.074779749E-1,2.614158690E-1
3.188532876E0,1.012881851E1,8.195417523E-1,3.218346536E-1
3.207996730E0,1.021316528E1,7.345965505E-1,4.492524564E-1
3.227460480E0,1.009591675E1,6.502495408E-1,6.346961856E-1
3.246924334E0,1.002772141E1,5.862415433E-1,7.190431952E-1
3.266388084E0,9.979865074E0,5.838487148E-1,6.987041831E-1
3.285851938E0,9.973882675E0,5.958128572E-1,6.149554253E-1
3.305315688E0,9.821938515E0,6.490531564E-1,5.545366406E-1
3.324779542E0,9.848857880E0,6.263213158E-1,6.119644046E-1
3.344243292E0,9.903294563E0,4.097708762E-1,6.071787477E-1
3.363707147E0,9.985248566E0,3.373879790E-1,5.635097623E-1
3.383170897E0,1.010548782E1,2.398804724E-1,5.330012441E-1
3.402634751E0,1.013180923E1,1.052841991E-1,4.025924206E-1
3.422098501E0,1.013539886E1,-2.392822644E-3,3.750749528E-1
3.441562355E0,1.006899738E1,-2.650051117E-1,3.750749528E-1
3.461026105E0,9.756135941E0,-5.024927258E-1,4.677968323E-1
3.480489959E0,9.325428009E0,-6.137589812E-1,7.381857634E-1
3.499953709E0,9.110074043E0,-6.646065116E-1,9.122636318E-1
3.519417563E0,9.240483284E0,-5.276173949E-1,9.762716293E-1
3.538881313E0,9.703494072E0,-3.002992272E-1,9.577272534E-1
3.558345167E0,9.908679008E0,-5.563312769E-2,8.428717852E-1
3.577808917E0,9.841081619E0,1.483550072E-1,6.077769399E-1
3.597272772E0,9.903294563E0,1.459621787E-1,4.025924206E-1
3.616736522E0,9.945169449E0,8.494520187E-2,2.261217386E-1
3.636200376E0,9.848857880E0,2.297109663E-1,1.118644550E-1
3.655664126E0,9.783055305E0,2.518445849E-1,8.255238086E-2
3.675127980E0,9.796216011E0,2.225325108E-1,2.733799815E-1
3.694591730E0,9.838688850E0,3.236292601E-1,4.833501875E-1
3.714055584E0,9.863813400E0,3.930211067E-1,5.826523304E-1
3.733519334E0,9.873982430E0,3.254238665E-1,6.376872063E-1
3.752983188E0,9.865009308E0,1.543370634E-1,6.562315822E-1
3.772446938E0,9.857233047E0,3.050848842E-2,6.197410822E-1
3.791910792E0,9.856036186E0,2.033899166E-2,5.581258535E-1
3.811374542E0,9.885947227E0,3.469592705E-2,5.000999570E-1
3.830838397E0,9.869196892E0,3.589234129E-2,3.643072546E-1
3.850302147E0,9.882357597E0,-2.213360928E-2,2.069791555E-1
3.869766001E0,9.921240807E0,-8.015955985E-2,7.118647546E-2
3.889229751E0,9.874580383E0,-7.836493850E-2,7.477571070E-2
3.908693605E0,9.783653259E0,-1.148554832E-1,1.040877849E-1
3.928157355E0,9.702896118E0,-1.992024779E-1,2.871387079E-2
3.947621209E0,9.636494637E0,-1.154536903E-1,-1.280160099E-1
3.967084959E0,9.604789734E0,8.374879137E-3,-1.842473447E-1
3.986548813E0,9.650852203E0,-4.845465720E-2,-9.690931439E-2
4.006012563E0,9.775876999E0,-2.189432681E-1,7.178467698E-3
4.025476417E0,9.784252167E0,-2.997010350E-1,-1.142572835E-1
4.044940167E0,9.692726135E0,-3.631108403E-1,-2.309073806E-1
4.064404022E0,9.603593826E0,-4.749752879E-1,-3.248256743E-1
4.083867772E0,9.661021233E0,-4.600201547E-1,-4.582255483E-1
4.103331626E0,9.661021233E0,-1.292124242E-1,-6.197410822E-1
4.122795376E0,9.576076508E0,2.703889608E-1,-7.836494446E-1
4.142259230E0,9.527621269E0,7.657032609E-1,-7.866404653E-1
4.161722980E0,9.531210899E0,1.499701619E0,-5.641079545E-1
4.181186834E0,9.744172096E0,1.991426587E0,-3.816552162E-1
4.200650584E0,9.815957069E0,2.132603168E0,-1.692921966E-1
4.220114334E0,9.540184021E0,2.023131609E0,1.674975827E-2
4.239578188E0,9.084351540E0,1.706680775E0,1.794617064E-2
4.259041938E0,8.955737114E0,1.462014675E0,-2.165504545E-1
4.278505792E0,9.393025398E0,1.427318692E0,-2.536391914E-1
4.297969542E0,1.031186962E1,1.431506157E0,-1.046859920E-1
4.317433397E0,1.119541931E1,1.535593987E0,8.015955985E-2
4.336897147E0,1.165005493E1,1.646860242E0,4.845465720E-2
4.356361001E0,1.159920788E1,1.636092424E0,-9.870393574E-2
4.375824751E0,1.140598774E1,1.562513232E0,-1.106680483E-1
4.395288605E0,1.107697392E1,1.431506157E0,1.615155302E-2
4.414752355E0,1.058046341E1,1.222732425E0,6.161518395E-2
4.434216209E0,1.010548782E1,1.230509043E0,-2.632104978E-2
4.453679959E0,9.702297211E0,1.300499082E0,-1.214357466E-1
4.473143709E0,9.452845573E0,1.335195065E0,-2.871387079E-2
4.492607563E0,9.339186668E0,1.375274777E0,2.476571500E-1
4.512071313E0,9.348159790E0,1.351346612E0,2.805584669E-1
4.531535167E0,9.435498238E0,1.301097274E0,8.434699476E-2
4.550998917E0,9.471389771E0,1.381855130E0,-8.614161611E-2
4.570462772E0,9.464211464E0,1.615753531E0,-6.221338734E-2
4.589926522E0,9.513264656E0,1.907677889E0,9.930214286E-2
4.609390376E0,9.725028992E0,2.190629244E0,2.512463629E-1
4.628854126E0,1.003848934E1,2.321636200E0,2.685943544E-1
4.648317876E0,1.029153061E1,2.165504456E0,1.022931710E-1
4.667781730E0,1.020897770E1,1.664806366E0,1.734796353E-2
4.687245480E0,9.851848602E0,1.299302697E0,1.615155302E-2
4.706709334E0,9.483354568E0,1.264008522E0,1.244267747E-1
4.726173084E0,9.376275063E0,1.307677627E0,1.866401732E-1
4.745636938E0,9.606584549E0,1.327418327E0,1.453639716E-1
4.765100688E0,9.973284721E0,1.239482164E0,-6.161518395E-2
4.784564542E0,1.032861900E1,1.119242787E0,-3.367897868E-1
4.804028292E0,1.055653572E1,9.218349457E-1,-5.000999570E-1
4.823492147E0,1.052961636E1,7.812566161E-1,-3.726821244E-1
4.842955897E0,1.014736271E1,6.687939167E-1,-6.759724021E-2
4.862419647E0,9.631709099E0,5.850451589E-1,5.084748194E-2
4.881883501E0,9.095118523E0,7.286145091E-1,3.349951655E-2
4.901347251E0,8.775676727E0,1.018146038E0,-1.232303679E-1
4.920811105E0,9.020342827E0,1.425524116E0,-4.061816335E-1
4.940274855E0,9.565906525E0,1.799402595E0,-5.617151260E-1
4.959738709E0,9.885348320E0,1.849651933E0,-6.586244106E-1
4.979202459E0,9.866804123E0,1.480558991E0,-7.310073376E-1
4.998666313E0,9.697511673E0,8.039883971E-1,-8.416753411E-1
5.018130063E0,9.479166985E0,2.213360965E-1,-9.696913958E-1
5.037593813E0,9.494122505E0,5.503492057E-2,-1.000199914E0
5.057057667E0,9.771091461E0,4.211367965E-1,-9.469595551E-1
5.076521417E0,9.863214493E0,9.403793216E-1,-8.362914920E-1
5.095985272E0,9.863214493E0,1.101894855E0,-8.410771489E-1
5.115449022E0,9.812965393E0,9.146564603E-1,-9.493523836E-1
5.134912876E0,9.704689980E0,5.563312769E-1,-9.314061999E-1
5.154376626E0,9.526425362E0,3.349951804E-1,-8.889335990E-1
5.173840480E0,9.398408890E0,2.614158690E-1,-7.405785918E-1
5.193304230E0,9.380462646E0,3.433700502E-1,-4.905286431E-1
5.212768084E0,9.567103386E0,3.433700502E-1,-3.272185028E-1
5.232231834E0,1.002473068E1,1.657029688E-1,-2.751746178E-1
5.251695688E0,1.055055332E1,2.512463741E-2,-2.703889608E-1
5.271159438E0,1.083888817E1,6.221338734E-2,-3.158525825E-1
5.290623188E0,1.093579769E1,2.667997181E-1,-4.073780477E-1
5.310087042E0,1.092383385E1,3.942175210E-1,-4.528416991E-1
5.329550792E0,1.048056316E1,2.841476798E-1,-4.115654826E-1
5.349014647E0,9.755537987E0,3.290131316E-2,-4.534398913E-1
5.368478397E0,9.175278664E0,-1.501496136E-1,-5.437689424E-1
5.387942251E0,8.900103569E0,-2.344966233E-1,-5.383850932E-1
5.407406001E0,8.976076126E0,-2.805584669E-1,-5.910272002E-1
5.426869855E0,9.360722542E0,-2.291127741E-1,-7.369893789E-1
5.446333605E0,9.845269203E0,-8.554340899E-2,-9.649057388E-1
5.465797459E0,1.032443142E1,3.469592705E-2,-1.051047325E0
5.485261209E0,1.050688457E1,2.249253243E-1,-1.034297585E0
5.504724959E0,1.049133110E1,4.169493318E-1,-1.045663476E0
5.524188813E0,1.029272652E1,3.906283081E-1,-9.619147182E-1
5.543652563E0,9.951150894E0,1.369891018E-1,-7.298108935E-1
5.563116417E0,9.690931320E0,-1.399801224E-1,-4.199403822E-1
5.582580167E0,9.470193863E0,-2.482553422E-1,2.153540403E-2
5.602044022E0,9.298508644E0,-3.242274821E-1,4.767699242E-1
5.621507772E0,9.190233231E0,-4.384847581E-1,8.141579032E-1
5.640971626E0,9.282955170E0,-4.761717021E-1,1.016949654E0
5.660435376E0,9.554540634E0,-2.488535494E-1,1.040279627E0
5.679899230E0,1.010189915E1,2.703889608E-1,9.116654396E-1
5.699362980E0,1.056431198E1,6.592226624E-1,7.250252366E-1
5.718826834E0,1.044945621E1,7.459624410E-1,2.775674164E-1
5.738290584E0,1.011326504E1,7.555337548E-1,-1.794617027E-1
5.757754438E0,9.947562218E0,5.940182209E-1,-3.852444589E-1
5.777218188E0,9.753743172E0,1.256231815E-1,-4.372883439E-1
5.796681938E0,9.432506561E0,-3.038884699E-1,-6.478567123E-1
5.816145792E0,9.119047165E0,-2.572284341E-1,-1.042074203E0
5.835609542E0,8.908478737E0,1.202393398E-1,-1.076770186E0
5.855073397E0,9.142974854E0,6.173482537E-1,-1.108475089E0
5.874537147E0,9.719645500E0,1.164108157E0,-1.086939692E0
5.894001001E0,1.040100193E1,1.645065546E0,-1.180858016E0
5.913464751E0,1.088255692E1,1.945963025E0,-1.208973646E0
5.932928605E0,1.086879826E1,1.987837434E0,-1.228116274E0
5.952392355E0,1.026461124E1,1.625923038E0,-1.235892892E0
5.971856209E0,9.668199539E0,1.127019525E0,-1.271187067E0
5.991319959E0,9.269196510E0,6.819544435E-1,-1.393221021E0
6.010783709E0,9.083154678E0,6.478567123E-1,-1.572682738E0
6.030247563E0,9.222537041E0,1.107876897E0,-1.725823283E0
6.049711313E0,9.611968994E0,1.649851203E0,-1.690529227E0
6.069175167E0,1.009172916E1,1.945963025E0,-1.548754454E0
6.088638917E0,1.046022415E1,1.954337835E0,-1.307677627E0
6.108102772E0,1.061695385E1,1.790429592E0,-1.065404296E0
6.127566522E0,1.052662468E1,1.439282775E0,-9.900303483E-1
6.147030376E0,1.013659477E1,1.014556766E0,-1.080359459E0
6.166494126E0,9.458827972E0,6.508477330E-1,-1.235892892E0
6.185957876E0,8.767900467E0,6.430711150E-1,-1.322632670E0
6.205421730E0,8.316853523E0,9.158528447E-1,-1.292722464E0
6.224885480E0,8.314460754E0,1.313061476E0,-1.080957651E0
6.244349334E0,8.675178528E0,1.621735573E0,-8.853443861E-1
6.263813084E0,9.404989243E0,1.705484390E0,-1.036690354E0
6.283276938E0,1.038006496E1,1.780858278E0,-1.447059512E0
6.302740688E0,1.114935684E1,1.731805444E0,-1.631905079E0
6.322204542E0,1.142812061E1,1.752742529E0,-1.767697692E0
6.341668292E0,1.092383385E1,1.730010748E0,-1.388435364E0
6.361132042E0,1.012463093E1,1.442872047E0,-9.924231768E-1
6.380595897E0,9.399007797E0,1.132403374E0,-6.723831892E-1
6.400059647E0,8.947361946E0,9.056833982E-1,-4.648058116E-1
6.419523501E0,8.879764557E0,8.757730722E-1,-4.510470629E-1
6.438987251E0,8.994620323E0,8.907282352E-1,-4.630111754E-1
6.458451105E0,9.328418732E0,9.355936646E-1,-6.023930907E-1
6.477914855E0,9.729815483E0,9.637092948E-1,-7.830511928E-1
6.497378709E0,1.000498962E1,1.085145116E0,-9.080761671E-1
6.516842459E0,1.009830952E1,1.308275819E0,-9.038887620E-1
6.536306209E0,9.820742607E0,1.374676585E0,-6.999006271E-1
6.555770063E0,9.373882294E0,1.188634634E0,-4.402793646E-1
6.575233813E0,9.189635277E0,8.745766878E-1,-2.554338276E-1
6.594697667E0,9.382257462E0,4.516452849E-1,-2.853440940E-1
6.614161417E0,9.806983948E0,2.955136001E-1,-3.678964674E-1
6.633625272E0,1.010788059E1,5.401797295E-1,-4.157529473E-1
6.653089022E0,9.847063065E0,7.238288522E-1,-5.682953596E-1
6.672552876E0,9.464211464E0,7.381857634E-1,-7.357929349E-1
6.692016626E0,9.267401695E0,7.489534616E-1,-7.633104324E-1
6.711480480E0,9.248857498E0,7.836494446E-1,-7.214360237E-1
6.730944230E0,9.466006279E0,8.027920127E-1,-7.328019142E-1
6.750407980E0,9.859027863E0,7.543373108E-1,-8.051848412E-1
6.769871834E0,1.015633583E1,7.507480979E-1,-8.428717852E-1
6.789335584E0,1.023111153E1,7.633104324E-1,-8.153542876E-1
6.808799438E0,9.963713646E0,7.728816867E-1,-8.799605370E-1
6.828263188E0,9.899705887E0,7.531409264E-1,-7.363911867E-1
6.847727042E0,9.763913155E0,8.338986635E-1,-6.430711150E-1
6.867190792E0,9.659226418E0,9.625129104E-1,-6.801598072E-1
6.886654647E0,9.609575272E0,9.278169870E-1,-5.371887088E-1
6.906118397E0,9.661619186E0,7.531409264E-1,-6.538388133E-1
6.925582251E0,9.783055305E0,6.005984545E-1,-8.608179688E-1
6.945046001E0,9.955338478E0,4.977070987E-1,-1.024726272E0
6.964509855E0,1.006122112E1,4.923232496E-1,-1.178465128E0
6.983973605E0,1.003131104E1,6.388836503E-1,-1.303490162E0
7.003437459E0,9.796216011E0,8.656035662E-1,-1.291526079E0
7.022901209E0,9.687342644E0,9.427721500E-1,-1.326820135E0
7.042364959E0,9.720842361E0,7.926225066E-1,-1.408176184E0
7.061828813E0,9.821938515E0,5.730810165E-1,-1.486541033E0
7.081292563E0,9.870393753E0,4.899304509E-1,-1.590628862E0
7.100756417E0,9.896714211E0,4.037888348E-1,-1.781456470E0
7.120220167E0,9.895518303E0,4.360919297E-1,-1.958525300E0
7.139684022E0,9.744172096E0,5.976074338E-1,-2.068595171E0
7.159147772E0,9.484550476E0,7.010970116E-1,-2.081157446E0
7.178611626E0,9.387042999E0,6.831508875E-1,-2.006979942E0
7.198075376E0,9.378668785E0,7.250252366E-1,-1.837687731E0
7.217539230E0,9.468399048E0,8.554341197E-1,-1.723430514E0
7.237002980E0,9.597013474E0,8.428717852E-1,-1.829911113E0
7.256466834E0,9.760323524E0,7.657032609E-1,-1.974676847E0
7.275930584E0,9.899106979E0,6.693921089E-1,-2.026720762E0
7.295394334E0,9.974481583E0,6.179464459E-1,-1.923829436E0
7.314858188E0,9.881759644E0,6.334998012E-1,-1.805982947E0
7.334321938E0,9.769894600E0,6.119644046E-1,-1.701895118E0
7.353785792E0,9.649057388E0,5.515456200E-1,-1.691127419E0
7.373249542E0,9.454042435E0,5.563312769E-1,-1.638485312E0
7.392713397E0,9.340383530E0,5.138586760E-1,-1.631905079E0
7.412177147E0,9.405587196E0,4.983053207E-1,-1.739582062E0
7.431641001E0,9.581459999E0,5.527420044E-1,-1.797009826E0
7.451104751E0,9.743574142E0,5.670989752E-1,-1.791625977E0
7.470568605E0,9.675378799E0,5.401797295E-1,-1.837687731E0
7.490032355E0,9.349954605E0,4.546363056E-1,-2.017747641E0
7.509496209E0,8.934201241E0,3.589234054E-1,-2.282154560E0
7.528959959E0,8.642276764E0,3.002992272E-1,-2.569293261E0
7.548423813E0,8.678169250E0,3.684946895E-1,-2.691327333E0
7.567887563E0,8.950352669E0,6.239284873E-1,-2.567498684E0
7.587351417E0,9.233304024E0,8.841479421E-1,-2.336591244E0
7.606815167E0,9.245866776E0,1.006780148E0,-2.248056889E0
7.626279022E0,8.781659126E0,9.230313301E-1,-2.066202402E0
7.645742772E0,7.968697548E0,7.944171429E-1,-1.806581140E0
7.665206626E0,7.235297680E0,7.417750359E-1,-1.383649707E0
7.684670376E0,6.860222340E0,3.834498227E-1,-9.152546525E-1
7.704134126E0,7.033103943E0,-2.512463741E-2,-7.369893789E-1
7.723597980E0,7.356134892E0,-2.338984162E-1,-9.290133715E-1
7.743061730E0,7.317251682E0,-1.136590727E-2,-1.241276741E0
7.762525584E0,7.232306480E0,8.374879360E-1,-1.829911113E0
7.781989334E0,8.395217896E0,1.445863128E0,-2.431107759E0
7.801453188E0,1.069890785E1,1.170688510E0,-2.018944025E0
7.820916938E0,1.229791164E1,9.391828775E-1,-1.622931957E0
7.840380792E0,1.262871933E1,1.024128079E0,-2.355733871E0
7.859844542E0,1.269870949E1,1.221535921E0,-3.157329559E0
7.879308397E0,1.300020504E1,1.083948612E0,-3.366103172E0
7.898772147E0,1.331546021E1,1.567298770E-1,-2.918645382E0
7.918236001E0,1.360499096E1,-9.320043921E-1,-2.650649309E0
7.937699751E0,1.457767391E1,-1.299900889E0,-2.346162558E0
7.957163605E0,1.799641991E1,-1.405783296E-1,-2.126022816E0
7.976627459E0,2.304288292E1,1.807777524E0,-2.448455811E0
7.996091209E0,2.700240517E1,3.254238844E0,-3.823730469E0
8.015555063E0,2.665544510E1,2.453839540E0,-5.868995667E0
8.035018813E0,2.178246307E1,5.246263742E-1,-6.439085960E0
8.054482667E0,1.520160198E1,-8.261220455E-1,-5.333601475E0
8.073946417E0,9.836296082E0,-1.539183140E0,-4.307080746E0
8.093410272E0,6.211767673E0,-1.360319614E0,-3.510270834E0
8.112874022E0,3.993022680E0,-7.680960894E-1,-2.904288530E0
8.132337876E0,2.687139750E0,-1.435693651E-1,-2.189432621E0
8.151801626E0,1.473380566E0,3.110669553E-1,-1.058824062E0
8.171265480E0,-1.425524116E0,2.554338276E-1,4.929214716E-1
8.190729230E0,-5.606383324E0,-2.039881349E-1,9.744769931E-1
8.210192980E0,-7.604390144E0,-5.138586760E-1,3.966103494E-1
8.229656834E0,-7.183851719E0,-7.339983582E-1,-2.841476798E-1
8.249120584E0,-5.120042324E0,-5.330012441E-1,-2.398804724E-1
8.268584438E0,-2.866003275E0,-1.680957973E-1,-2.374876440E-1
8.288048188E0,-1.361516118E0,1.860419661E-1,-6.729813814E-1
8.307512042E0,-6.221338734E-2,2.410768867E-1,-1.066002488E0
8.326975792E0,1.273579836E0,5.623133108E-2,-1.291526079E0
8.346439647E0,2.436491728E0,-2.207378894E-1,-2.125424623E0
8.365903397E0,3.206382275E0,-4.989035130E-1,-4.004986763E0
8.385367251E0,4.323232174E0,5.401797295E-1,-4.722833633E0
8.404831001E0,7.832904816E0,1.570289850E0,-3.941577196E0
8.424294855E0,1.645544052E1,1.687538147E0,-3.234498024E0
8.443758605E0,4.552644348E1,5.589633465E0,1.832303882E0
8.463222459E0,6.340501404E1,3.688536167E0,-4.731208801E0
8.482686209E0,3.508356476E1,-1.033699393E0,-8.236693382E0
8.502150063E0,2.314876366E1,-2.648854733E0,-9.971489906E0
8.521613813E0,2.137927246E1,-1.036690354E0,-8.894720078E0
8.541077563E0,2.107538414E1,1.311266780E0,-6.141777515E0
8.560541417E0,1.633280945E1,1.615753531E0,-4.141377926E0
8.580005167E0,1.063190937E1,1.814955950E0,-2.452643156E0
8.599469022E0,4.831707001E0,1.365703583E0,-4.546363056E-1
8.618932772E0,-3.032902777E-1,1.890329868E-1,1.925025821E0
8.638396626E0,-6.742974281E0,-7.902296782E-1,4.127619267E0
8.657860376E0,-9.813564301E0,-1.241874933E0,4.965106845E-1
8.677324230E0,-8.915657043E0,-8.997012973E-1,-1.556531072E0
8.696787980E0,-9.071190834E0,2.937189937E-1,-1.466202021E0
8.716251834E0,-6.494719028E0,1.186241865E0,-1.383051515E0
8.735715584E0,-3.712464333E0,1.305882931E0,-1.170090318E0
8.755179438E0,-9.774680734E-1,1.178465128E0,-3.607180119E-1
8.774643188E0,1.576271892E0,8.506484628E-1,6.251249313E-1
8.794107042E0,3.678366661E0,-3.948157281E-2,9.445667267E-1
8.813570792E0,4.345366001E0,-1.274776220E0,2.847459018E-1
8.833034647E0,5.773283005E0,-2.416152716E0,-1.215553880E0
8.852498397E0,9.201599121E0,-1.836491346E0,-2.117049932E0
8.871962251E0,1.333460236E1,-6.149554253E-1,-2.563909531E0
8.891426001E0,2.166461563E1,6.556333899E-1,-1.664208174E0
8.910889855E0,4.019882202E1,7.126423836E0,-4.164707661E0
8.930353605E0,5.141039276E1,7.394420147E0,-8.079365730E0
8.949817459E0,3.746382523E1,8.267202377E-1,-8.303692818E0
8.969281209E0,2.460778809E1,-1.968694806E0,-5.418546677E0
8.988745063E0,1.739701653E1,-1.673181176E0,-2.425724030E0
9.008208813E0,1.218185997E1,-2.781656384E-1,-3.487538993E-1
9.027672667E0,7.319644451E0,4.097708762E-1,5.659025311E-1
9.047136417E0,3.561118364E0,4.456632137E-1,6.394818425E-1
9.066600272E0,3.092723191E-1,2.889333367E-1,8.518448472E-1
9.086064022E0,-3.278167009E0,-3.170489892E-2,2.823530734E-1
9.105527876E0,-7.009773731E0,-4.378865361E-1,-1.339980721E0
9.124991626E0,-8.499305725E0,-9.511470199E-1,-2.956930637E0
9.144455480E0,-9.537193298E0,-8.745766878E-1,-2.558525562E0
9.163919230E0,-7.236494064E0,-5.318048596E-1,-9.200403094E-1
9.183383084E0,-4.001996040E0,-1.806581169E-1,3.708875179E-1
9.202846834E0,-1.651645780E0,-3.188436031E-1,4.510470629E-1
9.222310688E0,7.208378315E-1,-2.733799815E-1,-1.004985496E-1
9.241774438E0,3.087937593E0,-4.342973232E-1,-1.783849239E0
9.261238292E0,5.555535793E0,-7.100701332E-1,-4.326821327E0
9.280702042E0,7.447062492E0,-7.088736892E-1,-4.893920422E0
9.300165897E0,9.257830620E0,-2.267199457E-1,-4.771288395E0
9.319629647E0,1.417567921E1,4.510470629E-1,-5.108078003E0
9.339093397E0,3.240958786E1,2.741576433E0,-4.458426952E0
9.358557251E0,6.401159668E1,4.670191765E0,-2.419741869E0
9.378021105E0,4.499643326E1,9.744769931E-1,-1.597807288E0
9.397484855E0,2.552722931E1,-1.555334777E-1,-2.373081923E0
9.416948709E0,1.970668983E1,-1.068395257E0,-3.081955671E0
9.436412459E0,1.684247971E1,-3.050848842E-1,-4.331607342E0
9.455876313E0,1.324068451E1,2.434697002E-1,-4.532604218E0
9.475340063E0,8.556734085E0,9.696913958E-1,-4.198207378E0
9.494803917E0,4.710271358E0,1.471585870E0,-3.568296671E0
9.514267667E0,1.782652855E0,1.434497118E0,-3.025724173E0
9.533731522E0,-2.659024239E0,5.533402562E-1,-5.479564071E-1
9.553195272E0,-8.809774399E0,-8.105686903E-1,-1.674975902E-1
9.572659126E0,-9.150752068E0,-1.233500123E0,2.021935135E-1
9.592122876E0,-8.365307808E0,-1.075573802E0,1.527817249E0
9.611586730E0,-7.618149281E0,-6.616154313E-1,2.110469580E0
9.631050480E0,-5.131408215E0,-5.850451589E-1,1.481157184E0
9.650514334E0,-3.007778168E0,-5.790630579E-1,5.796613097E-1
9.669978084E0,-9.852447510E-1,-4.157529473E-1,-5.790630579E-1
9.689441938E0,1.253240824E0,-3.577269912E-1,-1.735992789E0
9.708905688E0,4.022933006E0,-2.021935135E-1,-2.757728100E0
9.728369542E0,8.641678810E0,1.191625714E0,-1.397408366E0
9.747833292E0,1.557428455E1,2.450250387E0,-1.462014675E0
9.767297147E0,3.129512978E1,2.701496840E0,1.236491084E0
9.786760897E0,5.360281754E1,6.091528416E0,-5.282155991E0
9.806224751E0,4.696811676E1,3.049652576E0,-1.081914711E1
9.825688501E0,2.907219696E1,6.293123364E-1,-7.989634991E0
9.845152355E0,1.898944092E1,-8.015955985E-2,-2.503490686E0
9.864616105E0,1.564786339E1,2.512463629E-1,-7.357929647E-2
9.884079959E0,1.211904812E1,7.178467698E-3,-1.076770201E-1
9.903543813E0,6.922435760E0,-1.992024779E-1,-2.213360928E-2
9.923007563E0,2.306082726E0,-6.041877270E-1,-4.402793646E-1
9.942471417E0,-2.705684185E0,-1.018146038E0,-5.928218365E-1
9.961935167E0,-9.019146919E0,-7.920243144E-1,-1.241874933E0
9.981399022E0,-1.035194874E1,-3.571287692E-1,-3.793222189E0
1.000086277E1,-1.044826031E1,6.765705943E-1,-3.673580885E0
1.002032663E1,-8.873783112E0,1.063609719E0,-9.212366939E-1
1.003979038E1,-5.099104881E0,5.084748268E-1,1.155135155E0
1.005925423E1,-1.816750646E0,-6.945167780E-1,1.572682738E0
1.007871798E1,9.876375198E-1,-1.322632670E0,7.878368497E-1
1.009818183E1,3.314059258E0,-1.059422255E0,-6.167500615E-1
1.011764558E1,5.856433392E0,4.743770957E-1,-2.923431158E0
1.013710944E1,8.712266922E0,1.876571178E0,-5.060820103E0
1.015657319E1,1.187557888E1,2.837887764E0,-4.378865242E0
1.017603704E1,1.945783615E1,5.055436134E0,-3.172284603E0
1.019550079E1,3.539044571E1,9.194420815E0,-2.474178553E0
1.021496465E1,4.527698898E1,3.574278831E0,-2.580659151E0
1.023442840E1,3.556033707E1,-2.456232548E0,-3.986442566E0
1.025389225E1,2.778007317E1,-2.578266382E0,-5.048257351E0
1.027335600E1,2.336770821E1,-3.750749528E-1,-3.780061483E0
1.029281986E1,1.916830444E1,3.176472187E-1,-4.475176334E0
1.031228361E1,1.480678654E1,3.128615618E-1,-3.701696634E0
1.033174746E1,1.024187946E1,5.192425251E-1,-2.350350142E0
1.035121131E1,5.725426197E0,5.946164131E-1,-1.195813060E0
1.037067506E1,1.677368641E0,4.301098585E-1,1.244267747E-1
1.039013892E1,-3.754338741E0,-3.230310604E-2,2.522035122E0
1.040960267E1,-8.338388443E0,-1.144367456E0,7.830511928E-1
1.042906652E1,-9.952347755E0,-1.022931695E0,-4.731806815E-1
1.044853027E1,-9.486345291E0,-2.554338276E-1,-1.555334777E-1
1.046799413E1,-7.191030025E0,4.396811724E-1,4.067798331E-2
1.048745788E1,-4.252045631E0,8.452646136E-1,-4.450650215E-1
1.050692173E1,-1.164706469E0,9.182456732E-1,-1.343569875E0
1.052638548E1,1.840678811E0,5.503492355E-1,-1.663609982E0
1.054584933E1,4.568496704E0,5.563312769E-2,-1.384247899E0
1.056531308E1,6.856035233E0,-4.396811724E-1,-4.887340367E-1
1.058477694E1,9.713065147E0,-1.448255897E0,-6.017948985E-1
1.060424079E1,1.607378578E1,-2.679961324E-1,-3.866203070E0
1.062370454E1,2.673919487E1,2.071586132E0,-4.380660057E0
1.064316840E1,4.312105560E1,5.626722336E0,-5.469394207E0
1.066263215E1,4.347818375E1,1.917249203E0,-7.514061451E0
1.068209600E1,3.093859863E1,-1.727617979E0,-5.263611794E0
1.070155975E1,2.091566277E1,-2.590828657E0,-3.719642878E0
1.072102361E1,1.624128342E1,-2.300698996E0,-3.976273060E0
1.074048746E1,1.345424366E1,-1.063011408E0,-3.626920938E0
1.075995121E1,9.896714211E0,1.860419661E-1,-2.529811859E0
1.077941506E1,5.913861275E0,1.055832982E0,-1.488933921E0
1.079887881E1,2.199602127E0,1.432702541E0,-3.529413342E-1
1.081834267E1,-2.047059774E0,1.704287887E0,1.082154036E0
1.083780642E1,-7.360920429E0,1.383649707E0,9.230313301E-1
1.085727027E1,-9.013762474E0,-2.781656384E-1,-1.202393413E0
1.087673402E1,-9.473783493E0,-1.415952802E0,-2.191227436E0
1.089619788E1,-8.398807526E0,-1.755733609E0,-1.167099237E0
1.091566163E1,-5.110470772E0,-1.368096352E0,2.859423161E-1
1.093512548E1,-1.540977836E0,-9.284151793E-1,3.349951804E-1
1.095458923E1,1.275374413E0,-7.304090858E-1,-6.155536175E-1
1.097405308E1,3.375076294E0,2.913261652E-1,-3.984049559E-1
1.099351694E1,5.094917774E0,1.127019525E0,-1.456630826E0
1.101298069E1,6.071189404E0,1.061815023E0,-3.462414265E0
1.103244454E1,7.098906517E0,3.439682424E-1,-4.566701889E0
1.105190829E1,1.126899815E1,-6.939185411E-2,-4.782654285E0
1.107137215E1,2.250868416E1,-1.986042857E-1,-3.832703590E0
1.109083590E1,4.961697388E1,-1.112662554E0,6.311069727E-1
1.111029975E1,5.523591614E1,-2.379063845E0,-5.571687698E0
1.112976350E1,2.873959541E1,1.285543919E0,-1.549352646E0
1.114922736E1,2.184886360E1,4.540380955E0,-3.649054468E-2
1.116869121E1,2.077628136E1,2.262413740E0,-2.652443886E0
1.118815496E1,2.012662888E1,-4.833501875E-1,-5.344369411E0
1.120761881E1,1.754417610E1,-1.438086390E0,-6.265605927E0
1.122708256E1,1.228834057E1,-9.445667267E-1,-4.663611412E0
1.124654642E1,6.783053875E0,4.929214716E-1,-2.504088879E0
1.126601017E1,2.225325108E0,8.745766878E-1,-9.792626500E-1
1.128547402E1,-3.397808075E0,5.934200287E-1,2.240280151E0
1.130493788E1,-9.244669914E0,-4.067798555E-1,1.822732687E0
1.132440163E1,-9.846465111E0,-1.820339799E0,-4.450650215E-1
1.134386548E1,-1.006959629E1,-1.118046403E0,-2.315055877E-1
1.136332923E1,-9.255437851E0,1.076770201E-1,4.630111754E-1
1.138279308E1,-6.340381622E0,5.593222976E-1,1.160518974E-1
1.140225683E1,-3.254837036E0,7.519445419E-1,-5.952146053E-1
1.142172069E1,-3.690928817E-1,8.500502706E-1,-1.347757339E0
1.144118444E1,2.053041935E0,4.612165689E-1,-2.517847538E0
1.146064829E1,3.068794966E0,7.968099117E-1,-2.781656265E0
1.148011215E1,5.633901119E0,6.933203340E-1,-1.494317770E0
1.149957590E1,1.024247742E1,9.667003751E-1,-1.572682738E0
1.151903975E1,1.739522171E1,-3.290131092E-1,-1.877169371E0
1.153850350E1,3.604846954E1,6.628118753E-1,-1.719841242E0
1.155796736E1,5.567200851E1,2.984447956E0,-1.082453156E1
1.157743121E1,4.074737549E1,3.248256683E0,-1.281057453E1
1.159689496E1,2.476332092E1,2.712264538E0,-8.356932640E0
1.161635881E1,1.755673790E1,1.473978758E0,-4.794618607E0
1.163582256E1,1.347099304E1,5.844469070E-1,-1.773679733E0
1.165528642E1,9.339186668E0,3.302095234E-1,2.949153781E-1
1.167475027E1,5.180460930E0,9.619147182E-1,2.000399828E0
1.169421402E1,1.310070395E0,9.912267923E-1,2.470589399E0
1.171367788E1,-3.193221807E0,2.697907388E-1,1.753939033E0
1.173314163E1,-6.812366009E0,-1.441675574E-1,-3.672982752E-1
1.175260548E1,-7.557730198E0,-6.939185411E-2,-2.532802820E0
1.177206933E1,-8.106883049E0,-1.830509305E-1,-2.758924484E0
1.179153308E1,-6.762714863E0,-5.593222976E-1,-1.381855130E0
1.181099694E1,-4.503292084E0,-1.085743308E0,-6.759724021E-2
1.183046069E1,-1.603789330E0,-1.572084427E0,6.939185858E-1
1.184992454E1,1.153938770E0,-1.446461320E0,5.754738450E-1
1.186938840E1,2.795415163E0,-6.041877270E-1,-1.591227055E-1
1.188885215E1,5.056034088E0,1.136590764E-1,-1.416550994E0
1.190831600E1,8.137392044E0,1.127019525E0,-2.570489645E0
1.192777975E1,1.416551018E1,2.437089920E0,-4.072584152E0
1.194724360E1,3.292882919E1,7.101299286E0,-6.969096184E0
1.196670746E1,5.950710678E1,4.515256405E0,-4.738985062E0
1.198617121E1,4.297389984E1,-3.056830883E0,-7.732406139E0
1.200563506E1,2.621935463E1,-3.888336897E0,-6.958328247E0
1.202509881E1,1.805624008E1,-2.472383976E0,-3.760320902E0
1.204456267E1,1.373420334E1,1.501496136E-1,-2.982653379E0
1.206402652E1,1.109013462E1,1.063011408E0,-1.960918188E0
1.208349027E1,7.521838188E0,1.315454245E0,-9.188438654E-1
1.210295413E1,4.071985722E0,1.365703583E0,-3.571287692E-1
1.212241788E1,-2.219343036E-1,1.191625714E0,1.398006678E0
1.214188173E1,-5.551946640E0,1.387837082E-1,1.370489120E0
1.216134558E1,-8.593822479E0,-8.536394835E-1,-6.149554253E-1
1.218080933E1,-9.126823425E0,-4.211367965E-1,-7.746763229E-1
1.220027319E1,-8.613563538E0,1.495514214E-1,-5.407779217E-1
1.221973694E1,-5.827719688E0,3.266202807E-1,-6.945167780E-1
1.223920079E1,-2.779263496E0,3.655036688E-1,-1.192223907E0
1.225866465E1,7.417750359E-2,2.662015259E-1,-1.393221021E0
1.227812840E1,2.342573404E0,4.701896608E-1,-1.182652593E0
1.229759225E1,3.645465374E0,7.567301393E-1,-6.783652306E-1
1.231705600E1,6.085546017E0,1.142572761E0,-9.176474810E-1
1.233651986E1,1.226261806E1,1.586441398E0,-4.396811485E0
1.235598371E1,2.992763138E1,2.442473650E0,-1.339382529E0
1.237544746E1,6.038228226E1,2.759522676E0,-5.257031441E0
1.239491131E1,4.636392975E1,-6.269195080E-1,-8.907281876E0
1.241437517E1,2.675295448E1,-2.715853751E-1,-4.173680782E0
1.243383892E1,1.745265007E1,-2.638086975E-1,-3.302693367E0
1.245330277E1,1.623470306E1,-8.464609981E-1,-4.095914364E0
1.247276663E1,1.402194023E1,-1.092323542E0,-3.981058598E0
1.249223038E1,9.625727654E0,-3.044866920E-1,-2.373680115E0
1.251169423E1,5.349154949E0,4.271188378E-1,-1.408176184E0
1.253115798E1,1.839482427E0,6.717849374E-1,-6.233302951E-1
1.255062183E1,-2.602792740E0,7.369893789E-1,5.395814776E-1
1.257008569E1,-8.413763046E0,2.494517565E-1,1.027717352E0
1.258954944E1,-1.074676514E1,-9.020941257E-1,-1.134197950E0
1.260901329E1,-1.005404282E1,-1.209571838E0,-3.041277647E0
1.262847704E1,-8.533403397E0,-7.322037220E-1,-1.643270969E0
1.264794090E1,-4.690530777E0,-5.084748194E-2,-3.230310604E-2
1.266740475E1,-7.519445419E-1,5.228317380E-1,1.106680483E-1
1.268686850E1,1.186241865E0,3.122633696E-1,-7.429714203E-1
1.270633236E1,3.060420275E0,5.545366406E-1,-1.625923038E0
1.272579610E1,4.571487427E0,2.165504545E-1,-3.564707518E0
1.274525996E1,5.162514687E0,4.486542344E-1,-4.580460548E0
1.276472381E1,6.819544315E0,9.266205430E-1,-4.094119549E0
1.278418756E1,1.089811039E1,6.669993401E-1,-2.594418049E0
1.280365142E1,2.060818481E1,1.045663476E0,-3.044866800E0
1.282311517E1,5.322175980E1,4.299304008E0,6.227321029E-1
1.284257902E1,5.963332748E1,1.038485050E0,-2.435893536E0
1.286204288E1,3.351148224E1,1.224527001E0,-5.952744484E0
1.288150663E1,2.178306007E1,6.616154313E-1,-2.994617462E0
1.290097048E1,1.934238243E1,-1.249651670E0,-2.606382132E0
1.292043433E1,1.748016739E1,-2.120639086E0,-2.094317913E0
1.293989808E1,1.442991734E1,-1.324427366E0,-3.675973892E0
1.295936194E1,9.150154114E0,-3.720839322E-1,-3.323032379E0
1.297882579E1,4.110270977E0,4.666004181E-1,-2.468794823E0
1.299828954E1,-4.169493318E-1,7.046862841E-1,-1.006181955E0
1.301775340E1,-5.899504185E0,1.286142170E-1,1.040279627E0
1.303721715E1,-9.604789734E0,-1.198205948E0,-1.839482427E0
1.305668100E1,-1.023769188E1,-1.390229940E0,-1.792224169E0
1.307614486E1,-1.015992451E1,-4.863412082E-1,-5.276173949E-1
1.309560860E1,-7.692326546E0,1.944168359E-1,-2.913261652E-1
1.311507246E1,-4.421338081E0,5.413761139E-1,-1.208375469E-1
1.313453631E1,-1.207179070E0,7.728816867E-1,2.093719877E-2
1.315400006E1,1.446461320E0,6.993024349E-1,-6.460621208E-2
1.317346392E1,3.189632654E0,5.294120312E-1,-9.152546525E-1
1.319292767E1,4.591826439E0,8.913264275E-1,-1.590030670E0
1.321239152E1,6.558726788E0,1.088734269E0,-1.154536963E0
1.323185538E1,8.967103004E0,1.172483087E0,-1.142572835E-1
1.325131913E1,2.298306084E1,2.336591244E0,-1.099501967E0
1.327078298E1,5.444628525E1,3.746562004E0,-4.593621254E0
1.329024683E1,5.899205017E1,2.189432681E-1,-1.250249863E1
1.330971058E1,3.329253769E1,-2.572284266E-2,-8.721838951E0
1.332917444E1,1.901695824E1,6.131607890E-1,-2.193022013E0
1.334863829E1,1.404287815E1,1.740778536E-1,-1.078564763E0
1.336810204E1,1.083350468E1,-8.362914920E-1,-1.045663476E0
1.338756590E1,7.801798344E0,-1.087537885E0,-1.042672515E0
1.340702975E1,4.559523582E0,-4.079762697E-1,-9.984052777E-1
1.342649350E1,7.992027402E-1,4.803591371E-1,-2.021935135E-1
1.344595736E1,-4.947759151E0,1.289731383E0,7.076773047E-1
1.346542121E1,-8.769695282E0,1.186241865E0,-6.957131624E-1
1.348488496E1,-9.469595909E0,4.127618968E-1,-2.360519648E0
1.350434881E1,-9.325428009E0,-4.360919297E-1,-2.150549412E0
1.352381256E1,-7.035496712E0,-9.002995491E-1,-5.054838061E-1
1.354327642E1,-2.981456995E0,-1.381855130E0,4.366901144E-2
1.356274027E1,-4.348955154E-1,-1.641476393E0,-2.739782035E-1
1.358220402E1,1.689332843E0,-1.352542996E0,-4.827519655E-1
1.360166788E1,3.298506021E0,-6.299105883E-1,-7.704889178E-1
1.362113173E1,4.757529736E0,4.695914388E-1,-6.484549642E-1
1.364059548E1,6.790232658E0,6.873382926E-1,-2.224128723E0
1.366005933E1,9.013164520E0,9.672985673E-1,-2.218744755E0
1.367952319E1,1.267597771E1,7.782655358E-1,-2.810968399E0
1.369898694E1,2.899861717E1,1.967498422E0,-4.475774765E0
1.371845079E1,6.403612518E1,6.182455540E0,-3.509672642E0
1.373791465E1,4.172005844E1,2.070389748E0,-4.621737003E0
1.375737840E1,2.497269440E1,2.467598438E0,-3.737588882E0
1.377684225E1,2.005544281E1,7.800601721E-1,-2.344966173E0
1.379630611E1,1.799582100E1,-1.507478207E-1,-2.349153519E0
1.381576986E1,1.585304832E1,-5.090730190E-1,-1.880160451E0
1.383523371E1,1.182054424E1,-2.380858511E-1,-1.027119160E0
1.385469756E1,7.505088329E0,4.420739710E-1,-1.126421213E0
1.387416131E1,3.743571043E0,7.591229677E-1,-1.286142230E0
1.389362517E1,-9.391828775E-1,8.279166222E-1,2.051845491E-1
1.391308902E1,-7.505686283E0,-4.067798331E-2,1.840080619E0
1.393255277E1,-1.107518005E1,-1.466800332E0,-9.846464992E-1
1.395201663E1,-1.080239773E1,-5.341976285E-1,-1.469193101E0
1.397148048E1,-9.326624870E0,-1.363908947E-1,-7.112665176E-1
1.399094423E1,-6.381658077E0,-1.866401732E-1,-6.550351977E-1
1.401040808E1,-3.585644722E0,-5.503492057E-2,-1.069591761E0
1.402987194E1,-1.300499082E0,1.525424421E-1,-2.091925144E0
1.404933569E1,2.823530734E-1,3.954139352E-1,-3.080759048E0
1.406879954E1,1.417747438E-1,9.559326172E-1,-2.703291416E0
1.408826340E1,7.197012424E0,9.164510965E-1,-3.954139471E0
1.410772715E1,2.194338036E1,2.072184324E0,-2.998206854E0
1.412719100E1,5.825805283E1,4.889134884E0,-5.012963295E0
1.414665486E1,6.376513290E1,-1.826920033E0,-9.885348320E0
1.416611861E1,3.254896927E1,-1.603789330E0,-1.104766178E1
1.418558246E1,2.022712708E1,-1.525424480E0,-7.555337429E0
1.420504631E1,1.355773354E1,9.128618240E-1,-2.877967358E0
1.422451017E1,1.052542877E1,1.774876237E0,-1.177866936E0
1.424397392E1,7.549953461E0,1.022333503E0,-8.171489239E-1
1.426343777E1,3.486342669E0,5.306084156E-1,-2.979064286E-1
1.428290163E1,-6.340979785E-2,4.378865361E-1,9.870393574E-2
1.430236538E1,-3.831507206E0,4.103690982E-1,1.549352705E-1
1.432182923E1,-6.584449768E0,2.045863420E-1,-1.670788407E0
1.434129308E1,-8.540582657E0,9.272187948E-2,-3.274577856E0
1.436075683E1,-9.960722923E0,-2.273181528E-1,-2.608774900E0
1.438022069E1,-6.970890522E0,-6.005984545E-1,-8.985049129E-1
1.439968454E1,-3.022135019E0,-6.047859192E-1,2.452643216E-1
1.441914829E1,-5.078766346E-1,-6.418746710E-1,7.914260626E-1
1.443861215E1,1.996212244E0,-6.825526357E-1,8.524430394E-1
1.445807600E1,3.744169235E0,-4.767699242E-1,5.623133183E-1
1.447753975E1,4.757529736E0,-1.417747438E-1,-6.167500615E-1
1.449700361E1,6.001797199E0,2.620140910E-1,-3.014956474E0
1.451646746E1,7.543373585E0,7.674978375E-1,-5.735595703E0
1.453593121E1,1.272682571E1,1.268794179E0,-8.181060791E0
1.455539506E1,2.483690071E1,2.895913601E0,-9.127422333E0
1.457485892E1,5.538307571E1,3.099303484E0,3.912265003E-1
1.459432277E1,5.812525177E1,1.749153376E0,-5.721239090E0
1.461378652E1,3.411865997E1,1.989033818E0,-6.811768055E0
1.463325038E1,2.097787666E1,9.750752449E-1,-5.453242779E0
1.465271423E1,1.686760521E1,9.631111473E-2,-5.472385406E0
1.467217798E1,1.387059498E1,1.147358418E0,-4.838885784E0
1.469164183E1,9.405587196E0,1.439880967E0,-2.349153519E0
1.471110569E1,5.176871777E0,1.100100160E0,-5.192425251E-1
1.473056944E1,1.657029629E0,5.623133183E-1,8.362914920E-1
1.475003329E1,-2.489133835E0,-4.695914388E-1,1.552343726E0
1.476949715E1,-7.005586624E0,-2.440080881E0,-6.550351977E-1
1.478896100E1,-8.158926964E0,-2.679961443E0,-1.598405480E0
1.480842475E1,-9.181859016E0,-1.847259045E0,-4.797609448E-1
1.482788860E1,-8.050651550E0,-1.134796143E0,6.580262184E-1
1.484735246E1,-5.045266628E0,-5.300102234E-1,6.047859192E-1
1.486681621E1,-2.134397745E0,-2.518445849E-1,-2.392822644E-3
1.488628006E1,8.494520187E-1,-2.512463629E-1,-6.562315822E-1
1.490574392E1,2.893520832E0,-2.572284266E-2,-1.113858938E0
1.492520767E1,4.002593994E0,5.102694035E-1,-1.138385415E0
1.494467152E1,4.581656933E0,9.158528447E-1,-9.726824164E-1
1.496413538E1,5.527420521E0,1.598405480E0,-9.828519225E-1
1.498359913E1,7.278966427E0,3.198007345E0,-2.434697002E-1
1.500306298E1,1.818964005E1,5.910272121E0,-1.680957913E0
1.502252683E1,4.868137741E1,9.086145401E0,-5.639284611E0
1.504199069E1,6.227260971E1,-1.094716340E-1,-1.407039547E1
1.506145444E1,3.702534103E1,-3.417548895E0,-1.029930687E1
1.508091829E1,2.014577293E1,-2.955136061E0,-5.215157032E0
1.510038215E1,1.284347534E1,-1.838884234E0,-1.936989903E0
1.511984600E1,1.020000458E1,-2.189432681E-1,-2.488535494E-1
1.513930975E1,7.468597889E0,7.698906660E-1,8.554341197E-1
1.515877360E1,4.002593994E0,1.647458434E0,2.542374134E-1
1.517823746E1,1.465603858E-1,2.359921217E0,-4.043870270E-1
1.519770121E1,-5.022534847E0,2.088934183E0,-5.694918036E-1
1.521716506E1,-8.411369324E0,1.069591761E0,-1.999203324E0
1.523662892E1,-8.146365166E0,-1.100698411E-1,-2.831905603E0
1.525609277E1,-9.197412491E0,-9.571290612E-1,-1.764108539E0
1.527555652E1,-6.789036274E0,-1.221535921E0,1.028913707E-1
1.529502038E1,-3.388236761E0,-1.290329576E0,1.350748420E0
1.531448423E1,-7.501499057E-1,-1.500898004E0,1.421934843E0
1.533394798E1,1.216750264E0,-1.293918848E0,5.551348329E-1
1.535341183E1,2.331207514E0,-5.766702294E-1,-1.211964726E0
1.537287569E1,3.312264681E0,-2.458625287E-1,-3.775275946E0
1.539233944E1,5.608178139E0,9.678967595E-1,-5.117649555E0
1.541180329E1,8.813961983E0,1.563709617E0,-5.029713154E0
1.543126715E1,1.453280830E1,1.211366415E0,-5.405984402E0
1.545073100E1,3.851487350E1,3.894917011E0,-3.159722328E0
1.547019475E1,7.268617249E1,5.624329567E0,-3.907479286E0
1.548965860E1,4.374558258E1,-3.738785386E-1,-6.056832314E0
1.550912246E1,2.306202507E1,-1.411765367E-1,-4.676771641E0
1.552858631E1,1.817348862E1,-6.424728632E-1,-2.339582443E0
1.554805006E1,1.551625824E1,-9.002995491E-1,-2.550150633E0
1.556751392E1,1.188036442E1,7.896314561E-2,-2.160718918E0
1.558697777E1,7.167101860E0,5.306084156E-1,-2.093719721E0
1.560644152E1,2.842673302E0,4.336991012E-1,-2.206780672E0
1.562590538E1,-5.341976285E-1,2.691925503E-2,-2.029711723E0
1.564536923E1,-4.611567497E0,-2.344966233E-1,-9.631111026E-1
1.566483308E1,-8.760123253E0,-1.007976532E0,-2.369492531E0
1.568429683E1,-9.449854851E0,-3.936193287E-1,-3.021536827E0
1.570376069E1,-1.039322472E1,1.366899967E0,-1.066002488E0
1.572322454E1,-7.585845947E0,1.494915962E0,3.954139352E-1
1.574268840E1,-4.594817638E0,9.056833982E-1,1.034297585E0
1.576215215E1,-1.926820397E0,3.290131092E-1,7.459624410E-1
1.578161600E1,3.750749528E-1,-6.281159520E-1,3.726821244E-1
1.580107986E1,1.200000525E0,-1.386042476E0,-5.210371017E-1
1.582054361E1,3.370888948E0,-2.046461582E0,-1.094716311E0
1.584000746E1,7.000202656E0,-2.196012974E0,-3.911666870E0
1.585947131E1,1.652842331E1,-1.339980721E0,-5.538786411E0
1.587893517E1,4.075575256E1,-7.250252366E-1,-3.003590584E0
1.589839892E1,6.544370270E1,6.481558323E0,-7.012166977E0
1.591786277E1,4.346981049E1,5.693123341E0,-9.597611427E0
1.593732663E1,2.471367073E1,2.054836512E0,-7.402196884E0
1.595679048E1,1.747299004E1,-1.977667928E0,-5.642275810E0
1.597625423E1,1.414696598E1,-2.846262455E0,-4.496711731E0
1.599571808E1,1.092024422E1,-2.000998020E0,-2.299502611E0
1.601518194E1,6.393621922E0,-1.007976532E0,6.161518395E-2
1.603464579E1,2.316252232E0,-6.053841114E-1,1.216152072E0
1.605410954E1,-1.686939955E0,-5.503492355E-1,2.433500528E0
1.607357340E1,-6.416353703E0,-1.507478207E-1,1.103689432E0
1.609303725E1,-1.002532864E1,-2.063809484E-1,-1.511665702E0
1.611250110E1,-9.789635658E0,-7.818548083E-1,-3.638286829E0
1.613196486E1,-9.809376717E0,-1.435693651E-1,-2.723032236E0
1.615142871E1,-4.855635166E0,3.613162339E-1,-9.026923180E-1
1.617089256E1,-1.139581800E0,5.330012441E-1,2.937189937E-1
1.619035642E1,1.104885817E0,2.673979402E-1,2.410768867E-1
1.620982017E1,2.870789051E0,-1.172483116E-1,-4.683950245E-1
1.622928402E1,4.199403763E0,-1.597209126E-1,-5.407779217E-1
1.624874788E1,4.701298237E0,-1.501496136E-1,-1.388435364E0
1.626821163E1,4.996213913E0,-8.871390224E-1,-3.208176851E0
1.628767548E1,5.849853039E0,-1.106680512E0,-4.275375843E0
1.630713933E1,9.604191780E0,-7.812566161E-1,-4.616951466E0
1.632660319E1,2.357468605E1,9.326026440E-1,-4.640879631E0
1.634606694E1,5.762395477E1,6.078966141E0,-4.067798555E-1
1.636553079E1,6.319623947E1,4.849653244E0,-7.962715626E0
1.638499465E1,3.112284660E1,1.865205288E0,-6.806384087E0
1.640445850E1,2.160180473E1,-2.137388945E0,-4.783252239E0
1.642392225E1,1.734078598E1,-3.101696253E0,-3.026920557E0
1.644338611E1,1.412004662E1,-2.039881349E-1,-2.361716032E0
1.646284996E1,9.103493690E0,1.205982566E0,-9.493523836E-1
1.648231381E1,4.299304008E0,1.600798368E0,-4.067798555E-1
1.650177767E1,9.786644578E-1,1.725225091E0,-8.009973764E-1
1.652124142E1,-1.333998680E0,1.843071699E0,-1.584048629E0
1.654070527E1,-5.792425632E0,6.759724021E-1,-3.253042459E0
1.656016913E1,-7.286144733E0,-1.534397483E0,-3.102892876E0
1.657963298E1,-9.043074608E0,-1.767697692E0,-2.404786795E-1
1.659909673E1,-8.538188934E0,-7.956135273E-1,2.168495417E0
1.661856058E1,-6.677171707E0,-3.086741269E-1,2.804986238E0
1.663802444E1,-4.070191383E0,-5.575276613E-1,2.199602127E0
1.665748829E1,-1.110867858E0,-4.947160780E-1,1.289731383E0
1.667695204E1,1.563111424E0,-4.109672904E-1,4.408775866E-1
1.669641590E1,3.112463951E0,-2.985046208E-1,-1.012163997E0
1.671587975E1,4.814359188E0,2.841476798E-1,-3.033500910E0
1.673534360E1,7.312466145E0,1.336989641E0,-1.106082320E0
1.675480736E1,1.536670685E1,3.135794163E0,-1.913659930E0
1.677427121E1,3.904966736E1,3.414557934E0,1.375873014E-2
1.679373506E1,6.355277252E1,1.105484009E0,-3.077169895E0
1.681319892E1,4.813641357E1,1.501496136E-1,-1.163510036E1
1.683266277E1,2.693540573E1,-1.615155302E-2,-7.855038643E0
1.685212652E1,1.655534172E1,2.027917206E-1,-3.464209080E0
1.687159038E1,1.156989574E1,-2.033899166E-2,-2.282154560E0
1.689105423E1,7.673782349E0,-5.108676553E-1,-1.856830359E0
1.691051808E1,4.056432724E0,-3.750749528E-1,-1.560718536E0
1.692998183E1,5.569294691E-1,-7.178467698E-3,-1.173679471E0
1.694944569E1,-3.854837179E0,-6.161518395E-2,3.439682424E-1
1.696890954E1,-7.901698589E0,-4.139583111E-1,-4.205385745E-1
1.698837340E1,-1.062114143E1,-6.334998012E-1,-2.219342947E0
1.700783725E1,-1.092622662E1,-3.762713671E-1,-1.953739643E0
1.702730100E1,-7.128218651E0,-3.523431420E-1,-7.118647099E-1
1.704676486E1,-3.163311481E0,-1.088734269E-1,3.876372576E-1
1.706622871E1,-4.271188378E-1,-7.836493850E-2,2.775674164E-1
1.708569256E1,1.634297848E0,5.503492057E-2,-5.102694035E-1
1.710515631E1,2.863610506E0,3.852444589E-1,-1.091725349E0
1.712462017E1,3.212364435E0,5.347958803E-1,-2.218146563E0
1.714408402E1,5.001597404E0,5.844469070E-1,-4.071985722E0
1.716354788E1,7.341778278E0,1.147956610E0,-3.422334671E0
1.718301163E1,1.134736347E1,1.604387641E0,-5.006981492E-1
1.720247548E1,2.489014053E1,3.490530014E0,-8.835497499E-1
1.722193933E1,6.874101257E1,4.655236244E0,-1.597209096E0
1.724140319E1,5.139543915E1,-2.045265198E0,-6.252445698E0
1.726086694E1,2.714537621E1,4.731806815E-1,-8.679366112E0
1.728033079E1,1.978266144E1,1.133001566E0,-4.430311203E0
1.729979465E1,1.524467278E1,3.690928817E-1,-2.063809633E0
1.731925850E1,1.290389442E1,-1.178465128E0,-1.734198213E0
1.733872236E1,9.458230019E0,-1.375274777E0,-1.083350420E0
1.735818610E1,5.065605640E0,-1.300499082E0,1.016949583E-2
1.737764996E1,5.377869010E-1,-1.308275819E0,8.105686903E-1
1.739711381E1,-4.025924206E0,-1.702493310E0,2.979064286E-1
1.741657767E1,-9.163912773E0,-1.579262972E0,-2.968894720E0
1.743604152E1,-1.039083195E1,-1.044467092E0,-4.268197536E0
1.745550527E1,-1.044108200E1,5.934200287E-1,-2.140978098E0
1.747496913E1,-7.900502205E0,1.469791293E0,-2.745763958E-1
1.749443298E1,-4.958526611E0,1.619940877E0,3.912265003E-1
1.751389683E1,-1.981855392E0,1.284945726E0,4.516452849E-1
1.753336058E1,4.947160780E-1,5.569294691E-1,1.806581169E-1
1.755282444E1,2.287538528E0,-7.190431952E-1,-9.272187948E-1
1.757228829E1,3.910470486E0,-1.348355532E0,-1.216152072E0
1.759175215E1,7.579864025E0,-1.500299811E0,2.650051117E-1
1.761121600E1,1.600379562E1,-1.113858938E0,-1.401595831E0
1.763067975E1,4.744129944E1,1.819143414E0,6.628118753E-1
1.765014360E1,6.795317078E1,4.322634220E0,-5.809773445E0
1.766960746E1,3.987399673E1,3.638286829E0,-7.763513088E0
1.768907131E1,2.448814774E1,1.063011408E0,-5.680561066E0
1.770853517E1,1.750768471E1,-1.281356573E0,-2.310868502E0
1.772799902E1,1.397468281E1,-2.459223509E0,-2.162513494E0
1.774746277E1,8.974281311E0,-2.193620205E0,-1.825723648E0
1.776692663E1,4.256233215E0,-1.135992527E0,-1.188036442E0
1.778639048E1,1.938186288E-1,-4.839483798E-1,-5.389832854E-1
1.780585433E1,-4.643272400E0,1.100698411E-1,-8.973085321E-3
1.782531819E1,-1.002712345E1,3.607180119E-1,-1.130010486E0
1.784478194E1,-8.946763992E0,-2.703889608E-1,-3.431307554E0
1.786424579E1,-9.631709099E0,-1.304088384E-1,-3.305086374E0
1.788370965E1,-9.418747902E0,8.344969153E-1,-5.904290080E-1
1.790317350E1,-4.076771736E0,8.201399446E-1,1.159920812E0
1.792263725E1,-6.747759581E-1,5.138586760E-1,1.404586911E0
1.794210111E1,2.288136721E0,1.142572835E-1,8.937192559E-1
1.796156496E1,3.899104595E0,-1.920240223E-1,-2.955136001E-1
1.798102881E1,4.934598446E0,1.794617027E-1,-7.752745152E-1
1.800049267E1,4.805984497E0,7.112665176E-1,-1.675574064E0
1.801995642E1,4.737788677E0,8.733802438E-1,-3.126821041E0
1.803942027E1,6.957729816E0,9.415757060E-1,-3.821337700E0
1.805888413E1,1.364806175E1,3.822534084E-1,-3.909274101E0
1.807834798E1,3.665924072E1,3.140579760E-1,-7.800601721E-1
1.809781183E1,6.777610016E1,1.372882009E0,-1.098903775E0
1.811727558E1,4.538825607E1,-2.775674164E-1,-4.520640373E0
1.813673944E1,2.397428894E1,-2.799602449E-1,-1.618744493E0
1.815620329E1,2.055494499E1,-1.459023595E0,-1.711466432E0
1.817566715E1,1.895773506E1,-1.318445325E0,-3.085544825E0
1.819513100E1,1.572263908E1,1.018744230E0,-4.450051785E0
1.821459475E1,1.081077290E1,2.004587173E0,-4.124628067E0
1.823405860E1,5.849255085E0,1.948355794E0,-3.233301640E0
1.825352246E1,4.713860750E-1,1.728216171E0,-1.402194023E0
1.827298631E1,-4.829912663E0,1.186840057E0,2.244467735E0
1.829245017E1,-1.010488987E1,-3.050848842E-2,1.617548108E0
1.831191392E1,-9.855438232E0,-2.110469580E0,-1.270588875E0
1.833137777E1,-1.088913727E1,-2.120639086E0,-1.306481123E0
1.835084163E1,-9.339784622E0,-1.130010486E0,-3.649054468E-1
1.837030548E1,-5.416153908E0,-4.313062727E-1,-7.698906660E-1
1.838976933E1,-2.239681959E0,-7.716853172E-2,-1.453041553E0
1.840923319E1,1.716850251E-1,-1.686939895E-1,-1.701296926E0
1.842869694E1,1.777867198E0,-2.279163599E-1,-1.792224169E0
1.844816079E1,2.477169752E0,-8.973085321E-3,-2.213959217E0
1.846762465E1,4.463810444E0,5.306084156E-1,-2.545963287E0
1.848708850E1,9.601201057E0,5.952146053E-1,-1.320239902E0
1.850655236E1,2.733740044E1,7.034898400E-1,1.698904037E0
1.852601610E1,6.308317947E1,3.125624657E0,-7.286145091E-1
1.854547996E1,5.716333771E1,3.718446493E0,-1.356909943E1
1.856494381E1,3.078246689E1,3.871587038E0,-1.133181000E1
1.858440767E1,1.845344734E1,1.529013634E0,-5.671587944E0
1.860387152E1,1.496172142E1,-7.842476368E-1,-2.675773859E0
1.862333538E1,1.104048347E1,-2.234298229E0,-9.188438654E-1
1.864279913E1,6.092724800E0,-2.063211441E0,5.635097623E-1
1.866226298E1,1.667797327E0,-1.097109199E0,1.146162033E0
1.868172683E1,-2.478366137E0,-1.657029688E-1,1.763510346E0
1.870119069E1,-6.684948444E0,3.332005441E-1,7.770691514E-1
1.872065454E1,-9.954740524E0,5.443671346E-1,-1.729412556E0
1.874011840E1,-1.076590729E1,6.430711150E-1,-2.849851847E0
1.875958215E1,-8.388637543E0,1.220339537E-1,-2.212762833E0
1.877904600E1,-4.386641979E0,-6.580262445E-3,-1.015753269E0
1.879850986E1,-1.257428288E0,-1.363908947E-1,-8.195417374E-2
1.881797371E1,1.261017561E0,-3.487538993E-1,-1.100698411E-1
1.883743756E1,3.329014540E0,-9.870393574E-2,-2.925225794E-1
1.885690131E1,3.948755503E0,6.340979934E-1,-7.603194118E-1
1.887636517E1,4.694119930E0,7.794619799E-1,-1.995614052E0
1.889582902E1,5.452644825E0,5.258227587E-1,-3.293720484E0
1.891529288E1,7.097710133E0,-5.742774159E-2,-4.150949001E0
1.893475673E1,1.350868034E1,-2.973082066E-1,-5.731408596E0
1.895422048E1,5.132424927E1,5.711667538E0,-6.079564095E0
1.897368433E1,7.376952362E1,3.111267567E0,-5.788238049E0
1.899314819E1,3.726761627E1,1.705484390E0,-9.193224907E0
1.901261204E1,1.906959915E1,-1.259821177E0,-4.261617184E0
1.903207590E1,1.271904850E1,-2.633899450E0,-4.363910198E0
1.905153975E1,9.759725571E0,-3.014956474E0,-3.893122435E0
1.907100360E1,5.995217323E0,-1.506281853E0,-2.133799553E0
1.909046736E1,3.499503136E0,-5.826523304E-1,-7.800601721E-1
1.910993121E1,1.423729509E-1,-1.028913707E-1,1.184447184E-1
1.912939506E1,-4.471587181E0,4.725824594E-1,1.288534999E0
1.914885892E1,-8.813961983E0,5.306084156E-1,4.247260094E-1
1.916832277E1,-9.238688469E0,6.699903607E-1,-1.389631748E0
1.918778663E1,-8.950352669E0,1.258624673E0,-5.635097623E-1
1.920725038E1,-6.637091637E0,1.082154036E0,-1.375873014E-2
1.922671423E1,-4.062414646E0,8.081758618E-1,-3.870390654E-1
1.924617808E1,-2.113460541E0,4.390829504E-1,-8.859425783E-1
1.926564194E1,-8.267202377E-1,-2.793620527E-1,-1.780260086E0
1.928510579E1,-1.172483116E-1,-1.144367456E0,-2.009970903E0
1.930456965E1,2.639881611E0,-1.230509043E0,-2.285145521E0
1.932403340E1,6.212365627E0,-9.379864931E-1,-4.050450325E0
1.934349725E1,1.766321945E1,-6.544370055E-1,-3.991228104E0
1.936296110E1,4.682335281E1,-8.129615188E-1,2.221137524E0
1.938242496E1,6.796573639E1,7.523034573E0,-7.167101860E0
1.940188881E1,3.890550232E1,5.682355404E0,-8.571688652E0
1.942135267E1,2.272463608E1,8.985049129E-1,-7.568498135E0
1.944081652E1,1.655713654E1,-2.672184706E0,-5.334199905E0
1.946028027E1,1.406381512E1,-2.785245657E0,-2.507678032E0
1.947974413E1,1.034118080E1,-1.774876237E0,-4.384847581E-1
1.949920798E1,5.593223095E0,-9.284151793E-1,8.009973764E-1
1.951867183E1,1.548156261E0,-7.812566161E-1,6.293123364E-1
1.953813569E1,-2.447259426E0,-6.693921089E-1,8.602197170E-1
1.955759954E1,-6.410970211E0,-1.830509305E-1,6.699903309E-2
1.957706340E1,-9.359525681E0,-2.883351147E-1,-2.861815929E0
1.959652715E1,-8.553742409E0,-4.570291340E-1,-4.972285271E0
1.961599100E1,-1.018385315E1,4.438686073E-1,-3.147758245E0
1.963545486E1,-8.035098076E0,1.040279627E0,-3.326023519E-1
1.965491871E1,-3.230908871E0,5.647061467E-1,3.433700502E-1
1.967438256E1,3.852444589E-1,5.204389244E-2,4.486542568E-2
1.969384642E1,2.962314367E0,-3.870390654E-1,-1.104885817E0
1.971331017E1,4.444668293E0,-4.552344978E-1,-1.332203984E0
1.973277402E1,4.818546772E0,1.752742529E-1,-2.280958176E0
1.975223788E1,6.377470493E0,-1.830509305E-1,-3.119642496E0
1.977170173E1,8.375477791E0,-2.967100143E-1,-4.875974178E0
1.979116558E1,1.499701595E1,-5.563312769E-1,-5.727221012E0
1.981062944E1,4.139463425E1,-7.154539824E-1,-2.339582443E0
1.983009319E1,6.244250107E1,-3.714857101E-1,9.385846853E-1
1.984955704E1,3.918606186E1,-1.585244983E-1,-2.658426046E0
1.986902090E1,2.556491661E1,9.672985673E-1,-2.469393015E0
1.988848475E1,2.315175629E1,-1.142572761E0,-1.207179070E0
1.990794860E1,2.274258232E1,-1.574477315E0,-2.882154942E0
1.992741246E1,1.891346931E1,-6.161518097E-1,-5.447858810E0
1.994687631E1,1.257547951E1,4.426721856E-2,-4.417150497E0
1.996634017E1,6.135197163E0,6.370890141E-1,-2.794218540E0
1.998580392E1,1.323829174E0,1.577468276E0,-1.968096614E0
2.000526777E1,-2.861217737E0,2.542374134E0,-9.840483069E-1
2.002473163E1,-7.925626755E0,2.952743053E0,-8.321040869E-1
2.004419548E1,-9.663414001E0,1.496710539E0,-2.613560438E0
2.006365933E1,-9.881759644E0,-1.752742529E-1,-1.942971945E0
2.008312319E1,-8.630910873E0,-8.476574421E-1,5.234299302E-1
2.010258694E1,-5.718247890E0,-1.053440213E0,1.807179332E0
2.012205079E1,-2.713460922E0,-1.625324726E0,1.655235052E0
2.014151465E1,2.949153781E-1,-1.898106575E0,8.338986635E-1
2.016097850E1,2.659622431E0,-1.581655741E0,-1.824527234E-1
2.018044236E1,4.247858524E0,-1.079761267E0,-1.107278705E0
2.019990621E1,4.888536453E0,-1.226321608E-1,-2.001596212E0
2.021937006E1,5.324030399E0,8.901300430E-1,-2.740380049E0
2.023883381E1,5.662614822E0,1.627717614E0,-2.388635159E0
2.025829767E1,1.015035343E1,2.234896421E0,-3.649652719E0
2.027776152E1,4.340640259E1,5.233701229E0,-5.718846321E-1
2.029722538E1,7.409075928E1,5.143372059E0,-1.204187965E1
2.031668923E1,4.306602097E1,-1.861017823E0,-1.307916832E1
2.033615308E1,1.959243202E1,-2.764906645E0,-4.481756687E0
2.035561694E1,1.143350506E1,-1.596012712E0,-1.822732687E0
2.037508079E1,8.690732002E0,-7.645068169E-1,1.974078715E-1
2.039454454E1,6.207580090E0,1.495514158E-2,1.095912814E0
2.041400840E1,3.440878868E0,5.084748268E-1,4.049852192E-1
2.043347225E1,2.757728100E-1,4.486542344E-1,-1.956132501E-1
2.045293611E1,-3.604787350E0,9.930214286E-2,-4.378865361E-1
2.047239996E1,-8.157731056E0,-6.580262184E-1,-1.736590981E0
2.049186381E1,-9.699306488E0,-1.208973646E0,-2.283350945E0
2.051132767E1,-9.766903877E0,-1.053440213E0,-1.668395638E0
2.053079142E1,-6.235097408E0,-4.959124923E-1,6.640082598E-2
2.055025527E1,-2.691327333E0,-9.212367237E-2,1.205982566E0
2.056971913E1,-6.005984545E-1,-4.606183618E-2,4.067798555E-1
2.058918298E1,1.756929994E0,3.110669553E-1,-7.339983582E-1
2.060864683E1,3.439084291E0,4.977070987E-1,-2.147558212E0
2.062811069E1,5.181059361E0,2.410768867E-1,-3.071187973E0
2.064757454E1,7.079763889E0,8.727820516E-1,-2.932404041E0
2.066703829E1,9.853643417E0,1.220339537E0,-2.006381750E0
2.068650215E1,1.935494423E1,1.938186288E0,-4.205385685E0
2.070596600E1,5.955316925E1,5.681159019E0,-2.746960402E0
2.072542986E1,6.613223267E1,1.704886109E-1,-3.397209883E0
2.074489371E1,3.168097115E1,-5.802595019E-1,-6.963712215E0
2.076435756E1,1.937648010E1,-1.426122308E0,-1.548156261E0
2.078382142E1,1.439342594E1,-1.543370605E0,-9.631111026E-1
2.080328527E1,1.124626637E1,-4.504488707E-1,-1.194616675E0
2.082274902E1,7.590631485E0,6.329016089E-1,-1.601994753E0
2.084221288E1,4.366302967E0,9.332008362E-1,-1.914856315E0
2.086167673E1,1.133599758E0,1.139581800E0,-1.611566067E0
2.088114058E1,-2.879761934E0,1.173081279E0,-1.134796143E0
2.090060444E1,-7.944769382E0,8.189435601E-1,-1.237687469E0
2.092006829E1,-9.872786522E0,-1.794616925E-3,-3.184248686E0
2.093953215E1,-1.062353420E1,2.117647976E-1,-2.819941521E0
2.095899600E1,-8.803194046E0,5.054838061E-1,-7.160521746E-1
2.097845975E1,-5.569892883E0,5.036891699E-1,-5.982056633E-2
2.099792360E1,-3.114856958E0,-4.307080805E-2,8.554340899E-2
2.101738746E1,-1.211964726E0,-9.661021233E-1,7.477571070E-2
2.103685131E1,-6.394818425E-1,-2.395215511E0,2.907279432E-1
2.105631517E1,3.285943747E0,-3.528815269E0,-1.776670814E-1
2.107577902E1,5.602794170E0,-3.257229805E0,-3.823730469E0
2.109524288E1,2.618884468E1,-2.806781054E0,-1.392024517E0
2.111470673E1,6.868058777E1,4.907679081E0,-1.800000787E0
2.113417058E1,6.189992905E1,9.582057953E0,-1.181994534E1
2.115363433E1,2.871506882E1,5.337191105E0,-8.590232849E0
2.117309819E1,1.739701653E1,6.323033571E-1,-4.305285931E0
2.119256204E1,1.353978729E1,-1.849053741E0,-2.821137905E0
2.121202590E1,9.490532875E0,-2.368894339E0,-1.854437590E0
2.123148975E1,5.568098068E0,-2.188834429E0,-7.896314859E-1
2.125095361E1,1.647458434E0,-1.440479279E0,7.142575383E-1
2.127041746E1,-1.959721804E0,-1.314257860E0,2.233700037E0
2.128988131E1,-5.672784328E0,-8.967102766E-1,1.515853167E0
2.130934506E1,-8.531010628E0,-3.822534084E-1,-1.341177106E0
2.132880892E1,-1.032502937E1,-7.298108935E-2,-3.290131092E0
2.134827277E1,-9.568898201E0,6.101697683E-2,-3.258426189E0
2.136773663E1,-5.901299000E0,3.822534084E-1,-1.716850281E0
2.138720048E1,-2.444866419E0,6.179464459E-1,-3.684946895E-1
2.140666433E1,1.986042857E-1,5.910272002E-1,-1.022931710E-1
2.142612819E1,2.004587173E0,6.580262184E-1,-3.098705411E-1
2.144559204E1,2.993421078E0,4.444667995E-1,-3.206382394E-1
2.146505579E1,3.484548092E0,2.560320199E-1,-1.178465128E0
2.148451965E1,5.999404430E0,-1.052841991E-1,-2.817548752E0
2.150398350E1,8.754141808E0,-7.453642488E-1,-3.393022537E0
2.152344736E1,1.478166199E1,-1.878963947E0,-4.066602230E0
2.154291121E1,3.293481064E1,-1.809572101E0,-6.074778557E0
2.156237506E1,6.255316925E1,1.531406522E0,-2.904886723E0
2.158183892E1,4.583511734E1,1.768894196E0,-4.511667252E0
2.160130277E1,2.568395996E1,2.015354872E0,-4.003790379E0
2.162076663E1,2.180399895E1,-1.209571838E0,-1.396211982E0
2.164023038E1,2.021097565E1,-2.969492912E0,-2.203789711E0
2.165969423E1,1.838525200E1,-1.841277003E0,-3.159124136E0
2.167915808E1,1.380479240E1,-1.615155339E-1,-3.823730469E0
2.169862194E1,7.360920429E0,1.482353687E0,-3.205784082E0
2.171808579E1,1.822732687E0,2.880958557E0,-2.602194548E0
2.173754965E1,-2.069193363E0,3.309273720E0,-2.568695068E0
2.175701350E1,-6.466004848E0,2.907279491E0,-1.548754454E0
2.177647736E1,-9.340981483E0,4.570291340E-1,-2.947359324E0
2.179594121E1,-1.071805096E1,-1.700698733E0,-2.582453728E0
2.181540496E1,-9.720243454E0,-1.360319614E0,5.670989752E-1
2.183486881E1,-7.176673412E0,-5.365904570E-1,2.417947292E0
2.185433267E1,-3.773481369E0,-3.661018610E-1,2.212164640E0
2.187379652E1,-1.025324464E0,-2.518445849E-1,9.756734371E-1
2.189326038E1,1.408774376E0,-2.069791555E-1,-7.884350419E-1
2.191272423E1,2.968296528E0,-1.597209126E-1,-2.653042078E0
2.193218808E1,4.666004181E0,1.040877849E-1,-3.095714331E0
2.195165194E1,5.714658737E0,3.948157430E-1,-2.282154560E0
2.197111579E1,8.248059273E0,4.480560422E-1,-2.793022156E0
2.199057954E1,2.580599403E1,3.744767308E-1,-2.824727058E0
2.201004340E1,6.850172424E1,3.229712248E0,-4.832305431E0
2.202950725E1,5.924449539E1,1.022931710E-1,-1.352542973E1
2.204897110E1,2.610390091E1,8.165507317E-1,-6.040082455E0
2.206843496E1,1.453340626E1,1.231107235E0,-3.221337557E0
2.208789881E1,1.113380337E1,-2.309073806E-1,-1.701296926E0
2.210736267E1,8.156534195E0,-1.090528965E0,-1.191625714E0
2.212682652E1,5.023132801E0,-9.427721500E-1,-7.812566161E-1
2.214629038E1,2.319243431E0,-6.041877270E-1,-6.329016089E-1
2.216575423E1,-1.049850941E0,-3.451646566E-1,-7.597211748E-2
2.218521798E1,-5.293521881E0,7.477571070E-2,1.393819153E-1
2.220468183E1,-9.368498802E0,3.631108403E-1,-6.574280262E-1
2.222414569E1,-1.022094154E1,2.889333367E-1,-1.861017823E0
2.224360954E1,-9.260223389E0,2.273181528E-1,-1.627119422E0
2.226307340E1,-4.920241356E0,2.069791555E-1,-6.681957245E-1
2.228253725E1,-2.111067772E0,1.112662554E-1,-1.004985496E-1
2.230200111E1,-8.015955985E-2,-2.243271172E-1,-4.797609448E-1
2.232146496E1,1.586441398E0,-2.757728100E-1,-1.215553880E0
2.234092881E1,2.673381090E0,-1.495514158E-2,-2.822334290E0
2.236039256E1,4.823332310E0,-3.062812984E-1,-3.748954773E0
2.237985642E1,8.943174362E0,-2.291127741E-1,-2.644068956E0
2.239932027E1,1.897149467E1,-4.995017350E-1,-1.637887120E0
2.241878413E1,5.264030457E1,5.094319344E0,1.214357495E0
2.243824798E1,7.213043976E1,6.285346985E0,-1.406381488E0
2.245771183E1,3.923152542E1,3.011367321E0,-1.022273636E1
2.247717569E1,2.161317062E1,1.503889084E0,-8.516056061E0
2.249663954E1,1.575733566E1,-2.545963287E0,-4.825126648E0
2.251610340E1,1.065464115E1,-3.315854073E0,-3.540181160E0
2.253556725E1,6.208178520E0,-1.354337573E0,-2.143370867E0
2.255503110E1,3.142374277E0,2.877369225E-1,-2.518445849E-1
2.257449486E1,-1.938186288E-1,2.279163599E-1,7.513462901E-1
2.259395871E1,-6.124429703E0,4.582255483E-1,1.433898926E0
2.261342256E1,-9.386445045E0,-1.603191197E-1,-3.643072546E-1
2.263288642E1,-8.615956306E0,-6.669993401E-1,-2.448455811E0
2.265235027E1,-1.000259686E1,2.614158690E-1,-2.431705952E0
2.267181413E1,-7.131209850E0,4.366901219E-1,-2.410768747E0
2.269127798E1,-3.912265062E0,4.384847581E-1,-2.419143677E0
2.271074183E1,-1.842473388E0,3.002992272E-1,-2.467000246E0
2.273020569E1,-4.235295951E-1,-1.692921966E-1,-2.388036966E0
2.274966944E1,1.794616925E-3,-2.847459018E-1,-1.582852125E0
2.276913329E1,1.188634634E0,-1.177866936E0,1.284945726E0
2.278859715E1,6.514459610E0,-7.639086246E-1,1.369891018E-1
2.280806100E1,1.676052666E1,3.469592705E-2,7.351947427E-1
2.282752486E1,4.280221176E1,-4.755735099E-1,2.772084951E0
2.284698871E1,6.467201233E1,5.322235584E0,-9.954142570E0
2.286645256E1,4.374199295E1,4.602594376E0,-1.193240833E1
2.288591642E1,2.668356133E1,5.642873764E0,-9.940981865E0
2.290538027E1,1.996810532E1,2.299502611E0,-2.572882652E0
2.292484413E1,1.605224991E1,-1.695913076E0,9.702895880E-1
2.294430798E1,1.185284710E1,-2.916252613E0,1.074377418E0
2.296377183E1,6.024528980E0,-2.070389748E0,3.637090325E-1
2.298323558E1,1.171884894E0,-9.014959335E-1,-1.531406492E-1
2.300269944E1,-2.193022013E0,-4.115654826E-1,-7.603194118E-1
2.302216329E1,-6.535995007E0,4.259224236E-1,-2.788236618E0
2.304162715E1,-9.506684303E0,2.614158690E-1,-4.206582069E0
2.306109100E1,-1.149153042E1,-6.562315822E-1,-3.595216036E0
2.308055486E1,-9.394820213E0,-1.195813060E0,-2.017149448E0
2.310001871E1,-4.970490932E0,-1.218544960E0,2.015953064E-1
2.311948256E1,-1.640878081E0,-1.392622828E0,2.293520451E0
2.313894642E1,1.036092162E0,-1.987239242E0,3.009572744E0
2.315841017E1,2.555534601E0,-1.857428551E0,1.992024899E0
2.317787402E1,4.180261135E0,-1.249651670E0,-5.090730190E-1
2.319733788E1,5.376672268E0,-3.230310604E-2,-2.823530674E0
2.321680173E1,5.248058319E0,1.859223247E0,-4.937589645E0
2.323626558E1,5.873183250E0,2.697309256E0,-6.180660725E0
2.325572944E1,8.036294937E0,3.073580742E0,-8.420342445E0
2.327519329E1,1.590808296E1,3.873979807E0,-1.330529022E1
2.329465715E1,3.572065353E1,6.259026051E0,-9.413364410E0
2.331412100E1,5.522634506E1,4.154538155E0,-9.315856934E0
2.333358486E1,6.022196198E1,-3.032902777E-1,-7.100701332E0
2.335304860E1,3.287080383E1,-1.830509305E0,-6.643074036E0
2.337251246E1,1.718585014E1,-3.449253798E0,-5.428716183E0
2.339197631E1,1.073898792E1,-1.895115495E0,-5.345565796E0
2.341144017E1,6.603592396E0,6.161518395E-2,-3.550350666E0
2.343090402E1,2.983251572E0,4.660021961E-1,-1.145563841E0
2.345036788E1,1.004387259E0,2.494517565E-1,6.185446382E-1
2.346983173E1,-1.816152334E0,-5.682953596E-1,9.314061999E-1
2.348929558E1,-5.410171986E0,-1.029511929E0,1.854437590E-1
2.350875944E1,-5.595615864E0,-6.382854581E-1,-5.006981492E-1
2.352822329E1,-7.514659405E0,1.453639716E-1,3.349951804E-1
2.354768715E1,-7.005586624E0,3.224328458E-1,1.273579836E0
2.356715100E1,-4.976472855E0,3.631108403E-1,1.051047325E0
2.358661475E1,-3.059821844E0,3.649054468E-1,6.149554253E-1
2.360607860E1,-9.655039310E-1,5.742774159E-2,2.333002165E-2
2.362554246E1,1.024726272E0,-4.073780477E-1,-4.689932466E-1
2.364500631E1,2.776870728E0,-7.854440212E-1,-1.060020447E0
2.366447017E1,3.831507206E0,-6.879364848E-1,-2.196611166E0
2.368393402E1,4.980660439E0,-2.111666054E-1,-3.599403381E0
2.370339788E1,6.530013084E0,7.639086246E-1,-4.013361931E0
2.372286173E1,2.046581268E1,2.387438774E0,-7.848458290E0
2.374232558E1,6.529175568E1,1.019521904E1,-2.929413080E0
2.376178944E1,6.618428040E1,3.585046530E0,-1.429113293E1
2.378125329E1,2.856132889E1,-2.499303341E0,-8.459226608E0
2.380071715E1,1.227996540E1,-2.996412039E0,-4.305285931E0
2.382018100E1,9.043074608E0,-2.087139606E0,-1.586441398E0
2.383964486E1,6.924230576E0,-1.445863128E0,3.337987661E-1
2.385910861E1,4.003790379E0,-7.088736892E-1,1.036092162E0
2.387857246E1,7.453642488E-1,-4.965107143E-2,9.690931439E-1
2.389803631E1,-2.779861689E0,4.043870270E-1,9.086744189E-1
2.391750017E1,-6.129215240E0,1.992024779E-1,-2.111666054E-1
2.393696402E1,-7.516454220E0,-4.881358147E-1,-1.794018745E0
2.395642788E1,-7.854440212E0,-8.626125455E-1,-2.153540373E0
2.397589173E1,-8.678768158E0,-1.848455518E-1,-1.374078393E0
2.399535558E1,-5.199603558E0,-3.212364316E-1,-7.555337548E-1
2.401481944E1,-2.213959217E0,-6.029912829E-1,-3.074777126E-1
2.403428329E1,3.086741269E-1,-5.533402562E-1,-3.565305769E-1
2.405374715E1,2.199003935E0,-2.165504545E-1,-7.393822074E-1
2.407321090E1,2.810370207E0,4.360919297E-1,-1.975275040E0
2.409267475E1,3.775275946E0,4.079762697E-1,-4.593023300E0
2.411213861E1,5.258227825E0,4.863412082E-1,-4.191029072E0
2.413160246E1,1.074736309E1,5.036891699E-1,-5.449653625E0
2.415106631E1,3.744229126E1,3.936193228E0,-1.015155029E1
2.417053017E1,7.748318481E1,2.838485956E0,-4.684548378E0
2.418999402E1,5.712863922E1,2.295315027E0,-8.633902550E0
2.420945788E1,2.437987137E1,3.221935749E0,-4.509274483E0
2.422892173E1,1.434915924E1,-3.768695518E-2,-1.683948994E0
2.424838558E1,9.158528328E0,-1.101296663E0,-8.075776696E-1
2.426784944E1,4.099503517E0,-6.388836503E-1,3.714857101E-1
2.428731329E1,4.923232496E-1,-4.259224236E-1,7.226324677E-1
2.430677715E1,-2.689532757E0,-6.077769399E-1,-8.315058947E-1
2.432624100E1,-5.773880959E0,-1.552941918E0,-4.611567497E0
2.434570475E1,-5.580062389E0,-2.312064886E0,-9.402596474E0
2.436516860E1,-7.042675018E0,-1.268195987E0,-6.443273067E0
2.438463246E1,-1.039501953E1,5.084748268E-1,-1.945364833E0
2.440409631E1,-6.881159782E0,9.433703423E-1,9.284151793E-1
2.442356017E1,-4.077968121E0,8.769695163E-1,3.003590584E0
2.444302402E1,-2.075175524E0,4.594219327E-1,3.762713671E0
2.446248788E1,-5.419743061E-1,2.656033039E-1,3.074777126E0
2.448195173E1,5.407779217E-1,1.525424421E-1,2.011765718E0
2.450141558E1,9.643075466E-1,1.020538807E0,-6.311069727E-1
2.452087944E1,3.133401155E0,1.795215130E0,-4.361517429E0
2.454034319E1,8.133204460E0,2.373081923E0,-7.668996811E0
2.455980704E1,2.182134628E1,3.159124136E0,-7.164709091E0
2.457927090E1,6.041039658E1,5.487340450E0,-2.672782898E0
2.459873475E1,7.373841858E1,-2.651845694E0,-8.737391472E0
2.461819860E1,3.629433441E1,-3.382853031E0,-1.157408333E1
2.463766246E1,1.586979771E1,-1.551745534E0,-5.231308460E0
2.465712631E1,8.480761528E0,4.259224236E-1,-3.300898790E0
2.467659017E1,7.197012424E0,-2.572284341E-1,-2.252842426E0
2.469605402E1,4.473381996E0,-4.486542568E-2,-9.409775138E-1
2.471551788E1,1.271187067E0,9.577272534E-1,5.347958803E-1
2.473498173E1,-2.438884497E0,1.619342685E0,2.023729801E0
2.475444558E1,-6.558726788E0,1.252044439E0,1.264008522E0
2.477390944E1,-8.074580193E0,-7.124629617E-1,-1.564906001E0
2.479337329E1,-9.408578873E0,-1.730010748E0,-2.927020311E0
2.481283704E1,-9.717252731E0,-1.474576950E0,-1.850250125E0
2.483230090E1,-4.042075634E0,-1.537388563E0,-1.830509305E-1
2.485176475E1,-4.755735099E-1,-1.181456208E0,1.284347534E0
2.487122861E1,1.738983870E0,-9.224331379E-1,1.176670551E0
2.489069246E1,3.271586657E0,-8.506484628E-1,-4.073780477E-1
2.491015631E1,4.237689018E0,-6.346961856E-1,-1.567897081E0
2.492962017E1,4.685744762E0,1.603191197E-1,-3.812364578E0
2.494908402E1,3.955934048E0,4.959124923E-1,-5.304289818E0
2.496854788E1,3.759722471E0,7.022934556E-1,-5.705087185E0
2.498801163E1,6.244668961E0,1.202393413E0,-5.006382942E0
2.500747548E1,1.446341610E1,1.432702541E0,-5.961119175E0
2.502693933E1,4.856293488E1,5.678168297E0,-1.588834286E0
2.504640319E1,7.353323364E1,2.256431818E0,-8.073383331E0
2.506586704E1,4.327599335E1,-3.918247223E-1,-8.959924698E0
2.508533090E1,2.079661942E1,3.553341627E-1,-8.221738815E0
2.510479475E1,1.497248936E1,-1.375873014E-2,-6.374479294E0
2.512425860E1,1.104945660E1,1.495514214E-1,-3.287738323E0
2.514372246E1,7.798209190E0,4.265206456E-1,-1.435693622E0
2.516318631E1,4.759922504E0,8.829515576E-1,-5.330012441E-1
2.518265017E1,2.667997360E0,7.238288522E-1,-1.998006850E-1
2.520211402E1,-5.264210105E-1,-1.525424421E-1,-8.925228715E-1
2.522157788E1,-4.244867325E0,-2.109273195E0,-6.867401004E-1
2.524104173E1,-7.493124008E0,-3.605983734E0,-1.964507341E0
2.526050558E1,-9.622735977E0,-2.079362869E0,-1.286142230E0
2.527996933E1,-9.904491425E0,5.820540786E-1,4.815555513E-1
2.529943319E1,-6.074180126E0,1.312463164E0,1.070788130E-1
2.531889704E1,-3.422932863E0,1.174875975E0,-8.117650747E-1
2.533836090E1,-1.045663476E0,6.765705943E-1,-1.395613790E0
2.535782475E1,1.126421213E0,2.099701911E-1,-1.799402595E0
2.537728860E1,2.408375978E0,-3.152543902E-1,-2.267797709E0
2.539675246E1,4.083351612E0,-4.468596280E-1,-2.538784742E0
2.541621631E1,6.236293793E0,4.845465720E-1,-6.317051649E-1
2.543568017E1,1.126959610E1,9.936196208E-1,3.954139352E-1
2.545514402E1,2.895614433E1,2.352742910E0,2.003988922E-1
2.547460788E1,6.026383591E1,6.608976364E0,-6.945765972E0
2.549407173E1,5.626004410E1,8.829515576E-1,-1.660140419E1
2.551353558E1,2.804507828E1,-7.764709592E-1,-1.053380394E1
2.553299933E1,1.822672844E1,-1.266999602E0,-5.246861935E0
2.555246319E1,1.293859005E1,-8.273184299E-1,-3.002992272E-1
2.557192704E1,9.113064766E0,4.755735099E-1,2.381456852E0
2.559139090E1,5.599205017E0,1.158126116E0,1.546959877E0
2.561085475E1,2.773879766E0,1.092921734E0,-6.077769399E-1
2.563031861E1,-5.653043389E-1,9.098708034E-1,-1.645663738E0
2.564978246E1,-5.821737289E0,2.949153781E-1,-1.420140266E0
2.566924631E1,-8.913862228E0,-6.873382926E-1,-3.213560820E0
2.568871017E1,-8.334799767E0,-1.072582722E0,-4.140779495E0
2.570817402E1,-9.858428955E0,-5.485545993E-1,-2.009372711E0
2.572763788E1,-6.135197163E0,-5.688936114E-1,-3.320041299E-1
2.574710163E1,-2.157727718E0,-6.065805554E-1,6.538388133E-1
2.576656548E1,1.848455518E-1,-5.790630579E-1,9.780662656E-1
2.578602933E1,1.802393675E0,-3.738785386E-1,6.149554253E-1
2.580549319E1,2.960519791E0,5.144568533E-2,-6.065805554E-1
2.582495704E1,3.778865099E0,5.000999570E-1,-2.787040234E0
2.584442090E1,5.207380295E0,5.210371017E-1,-3.582055569E0
2.586388475E1,7.918448448E0,3.445664644E-1,-4.361517429E0
2.588334861E1,1.717807388E1,8.614161611E-2,-7.857431412E0
2.590281246E1,4.920660400E1,2.124228239E0,-8.569893837E0
2.592227631E1,7.250970459E1,-2.727817893E-1,-5.335994720E0
2.594174017E1,3.686741638E1,-5.371887088E-1,-7.442874908E0
2.596120402E1,2.187638092E1,-2.522035122E0,-4.412963390E0
2.598066777E1,1.619462395E1,-2.116451740E0,-4.151547432E0
2.600013163E1,1.357986641E1,-1.254437327E0,-3.678366661E0
2.601959548E1,9.929018021E0,-1.286142170E-1,-2.602194548E0
2.603905933E1,6.145965099E0,1.052841991E-1,-2.337189436E0
2.605852319E1,2.653042078E0,6.777670383E-1,-1.990230203E0
2.607798704E1,-1.664208174E0,1.487139225E0,-6.257231236E-1
2.609745090E1,-6.290730953E0,1.149153113E0,-1.666600943E0
2.611691475E1,-8.731410027E0,2.015953064E-1,-3.338585854E0
2.613637860E1,-1.299183083E1,6.460621208E-2,-1.744367719E0
2.615584246E1,-1.089452171E1,3.834498227E-1,1.561316848E-1
2.617530631E1,-5.893522263E0,3.607180119E-1,1.045065284E0
2.619477017E1,-2.819941521E0,4.965107143E-2,9.529415965E-1
2.621423402E1,1.166501045E-1,-3.535395563E-1,-2.009970993E-1
2.623369777E1,2.446661234E0,-2.751746178E-1,-1.373480201E0
2.625316163E1,4.138386726E0,4.707878530E-1,-1.974676847E0
2.627262548E1,5.446064472E0,1.489532113E0,-4.241278172E-1
2.629208933E1,8.452047348E0,2.505883455E0,-1.302891970E0
2.631155319E1,1.609352684E1,3.343969584E0,-4.738387108E0
2.633101704E1,4.489892578E1,2.134995937E0,1.077368379E0
2.635048090E1,6.438307953E1,-1.961516380E0,-7.692326546E0
2.636994475E1,3.975495529E1,-2.314457655E0,-8.285746574E0
2.638940861E1,2.228854561E1,3.427718580E-1,-3.613760471E0
2.640887246E1,1.510110378E1,1.703689694E0,-2.072184324E0
2.642833631E1,1.285185051E1,7.028916478E-1,-2.694318295E0
2.644780017E1,9.619147301E0,-3.038884699E-1,-1.825723648E0
2.646726402E1,5.868995667E0,-3.278166950E-1,-8.925228715E-1
2.648672777E1,2.267199516E0,-1.453639716E-1,-2.285145670E-1
2.650619163E1,-1.984248161E0,8.374879137E-3,4.504488707E-1
2.652565548E1,-7.771289825E0,2.015953064E-1,-5.802594870E-2
2.654511933E1,-9.338588715E0,-2.955136001E-1,-2.502892494E0
2.656458319E1,-8.209176064E0,-7.962117195E-1,-3.243471146E0
2.658404704E1,-1.021256733E1,-2.015953064E-1,-9.708877802E-1
2.660351090E1,-7.844869137E0,3.032902777E-1,3.409772217E-1
2.662297475E1,-2.715853691E0,3.302095234E-1,7.058826834E-2
2.664243861E1,7.800601721E-1,3.110669553E-1,-2.937189937E-1
2.666190246E1,3.205185890E0,3.792623878E-1,-9.176474810E-1
2.668136621E1,5.146961689E0,1.561316848E-1,-1.795215130E0
2.670083006E1,5.601597786E0,1.704886109E-1,-3.512065411E0
2.672029392E1,5.568098068E0,2.644068897E-1,-4.282554150E0
2.673975777E1,7.988438606E0,6.287141442E-1,-3.729812384E0
2.675922163E1,1.220399380E1,-4.666004330E-2,-3.433102369E0
2.677868548E1,2.398266220E1,1.878365725E-1,-1.851446509E0
2.679814933E1,6.145486450E1,4.012763500E0,-1.063011408E0
2.681761319E1,6.433283234E1,5.228915691E0,-1.173918819E1
2.683707704E1,3.301078415E1,4.131208420E0,-7.230511665E0
2.685654090E1,1.946321869E1,-1.194616675E0,-3.097508907E0
2.687600475E1,1.690828323E1,-4.284348965E0,-1.900499344E0
2.689546860E1,1.386640739E1,-2.858824968E0,-2.347957134E0
2.691493246E1,9.056235313E0,-6.478567123E-1,-1.828116536E0
2.693439621E1,4.131806374E0,8.237292171E-1,-1.929811478E0
2.695386006E1,-5.934200287E-1,2.072782516E0,-7.609176040E-1
2.697332392E1,-4.820939541E0,2.877967358E0,5.533402562E-1
2.699278777E1,-6.839285374E0,1.928615093E0,-1.371087432E0
2.701225163E1,-7.886743546E0,-4.552344978E-1,-4.485944271E0
2.703171548E1,-1.091665554E1,-1.216750264E0,-3.028715372E0
2.705117933E1,-1.063131142E1,-7.190431952E-1,-4.031906128E-1
2.707064319E1,-6.557530403E0,-8.279166222E-1,4.612165689E-1
2.709010704E1,-4.048057556E0,-1.079162955E0,8.075776696E-1
2.710957090E1,-1.557727575E0,-1.252642632E0,4.217349887E-1
2.712903475E1,7.322037220E-1,-1.283749342E0,-3.230310678E-1
2.714849860E1,2.388635159E0,-6.981059909E-1,-1.484148264E0
2.716796246E1,4.907679081E0,5.904290080E-1,-2.639283419E0
2.718742631E1,7.819146156E0,2.581257343E0,-6.071787477E-1
2.720689017E1,2.145703888E1,6.382854462E0,-2.255235434E0
2.722635402E1,5.568277740E1,6.856633186E0,-7.879564762E0
2.724581788E1,6.721558380E1,-5.144568920E0,-1.578246021E1
2.726528173E1,3.503331757E1,-3.269792080E0,-1.019521904E1
2.728474558E1,1.968276024E1,-4.953143001E-1,-3.941577196E0
2.730420944E1,1.392084408E1,1.043270707E0,-7.657032609E-1
2.732367319E1,1.103330517E1,1.262213945E0,-4.486542568E-2
2.734313704E1,6.934998035E0,1.333998680E0,-3.792623878E-1
2.736260090E1,3.200998545E0,1.537388563E0,-3.954139352E-1
2.738206475E1,-3.409772217E-1,1.469791293E0,4.289134443E-1
2.740152861E1,-4.976472855E0,8.045865893E-1,3.655036688E-1
2.742099246E1,-9.017352104E0,-3.260220885E-1,-2.401197433E0
2.744045631E1,-1.055294609E1,-1.170090318E0,-4.559523582E0
2.745992017E1,-1.187856960E1,-1.135394335E0,-3.117249727E0
2.747938402E1,-6.208178520E0,-7.369893789E-1,-1.004387259E0
2.749884788E1,-2.497508526E0,-3.146561682E-1,2.673979402E-1
2.751831173E1,-1.064806059E-1,-3.493520916E-1,4.396811724E-1
2.753777558E1,1.923231244E0,-5.102694035E-1,5.802594870E-2
2.755723944E1,2.871387243E0,-2.793620527E-1,-1.167099237E0
2.757670329E1,4.173680782E0,-1.764706671E-1,-3.290729284E0
2.759616715E1,5.641079426E0,4.390829504E-1,-3.388236761E0
2.761563100E1,7.637291908E0,4.683950245E-1,-2.142174482E0
2.763509486E1,1.380479240E1,9.996016622E-1,-5.798407555E0
2.765455871E1,4.871726990E1,6.125626087E0,-9.223732948E0
2.767402256E1,7.070372009E1,-3.877569199E0,-5.190630436E0
2.769348642E1,3.626562119E1,1.202393398E-1,-9.117252350E0
2.771295027E1,1.964328003E1,1.878963947E0,-4.255635262E0
2.773241413E1,1.318385410E1,5.784648657E-1,-2.708076954E0
2.775187798E1,1.004207802E1,-1.106082320E0,-2.689532757E0
2.777134183E1,7.013363361E0,-1.050449133E0,-2.130210400E0
2.779080569E1,3.952943087E0,-9.708877802E-1,-1.332802176E0
2.781026954E1,7.381857634E-1,-7.752745152E-1,-8.847461939E-1
2.782973340E1,-4.789234638E0,-3.206382394E-1,-3.451646566E-1
2.784919725E1,-7.691728592E0,-1.040877849E-1,-1.751546144E0
2.786866110E1,-8.648259163E0,9.870393574E-2,-2.720639229E0
2.788812496E1,-1.194676495E1,7.597211599E-1,-9.625129104E-1
2.790758881E1,-8.276175499E0,6.981059909E-1,2.985046208E-1
2.792705267E1,-5.050052166E0,2.650051117E-1,5.024927258E-1
2.794651652E1,-2.889333248E0,-3.553341627E-1,2.991028316E-2
2.796598038E1,-6.765705943E-1,-6.927221417E-1,-3.403790295E-1
2.798544423E1,1.909472466E0,-1.047458172E0,-2.117647976E-1
2.800490808E1,6.155536175E0,-6.664010882E-1,1.171286702E0
2.802437194E1,1.267657661E1,4.779663086E-1,-7.345965505E-1
2.804383579E1,3.395175934E1,1.636092424E0,-4.133601189E-1
2.806329965E1,6.471568298E1,6.929614544E0,-5.497509956E0
2.808276350E1,4.681796646E1,4.158725739E0,-1.119781208E1
2.810222736E1,2.819223595E1,3.336193085E0,-9.186644554E0
2.812169121E1,1.949612045E1,1.938186288E-1,-4.881956577E0
2.814115506E1,1.460459328E1,-1.253240824E0,-2.889333248E0
2.816061892E1,1.093220806E1,-1.440479279E0,-2.271985054E0
2.818008277E1,6.425326824E0,-5.138586760E-1,-6.628118753E-1
2.819954663E1,2.489732027E0,2.404786795E-1,3.852444589E-1
2.821901048E1,-1.441077471E0,5.198407173E-1,1.532602906E0
2.823847433E1,-5.827121258E0,5.294120312E-1,1.810768485E0
2.825793819E1,-8.602795601E0,3.349951655E-2,-1.088136077E0
2.827740204E1,-9.516255379E0,-2.386840582E-1,-3.138186932E0
2.829686590E1,-9.480362892E0,-5.976074338E-1,-2.819941521E0
2.831632975E1,-7.377072334E0,-5.240281820E-1,-1.490130305E0
2.833579361E1,-3.643072367E0,-6.514459848E-1,-8.955138922E-1
2.835525746E1,-3.720839322E-1,-5.670989752E-1,-4.157529473E-1
2.837472131E1,1.657029629E0,-1.064806059E-1,-1.148554832E-1
2.839418517E1,3.604189157E0,-4.546362907E-2,-4.767699242E-1
2.841364902E1,4.106681824E0,-2.458625287E-1,-1.740180254E0
2.843311288E1,4.670789719E0,-3.140579760E-1,-2.784647465E0
2.845257673E1,6.277570248E0,-8.135596663E-2,-4.133601189E0
2.847204058E1,8.575278282E0,2.249253243E-1,-3.440280676E0
2.849150444E1,1.868854332E1,7.686942816E-1,-3.662813187E0
2.851096829E1,6.100920105E1,3.698705673E0,-6.851847649E0
2.853043215E1,6.820082855E1,-2.041675806E0,-1.055892849E1
2.854989600E1,3.206322479E1,1.137787223E0,-6.003592014E0
2.856935986E1,1.982812500E1,9.194421172E-1,-2.313859463E0
2.858882371E1,1.850429535E1,-1.844268084E0,-4.125824451E0
2.860828756E1,1.523091412E1,-3.312264681E0,-4.800600529E0
2.862775142E1,1.012044334E1,-2.494517565E0,-4.430311203E0
2.864721527E1,4.523631096E0,-7.866404653E-1,-3.334398270E0
2.866667913E1,-5.467599630E-1,7.357929349E-1,-1.377667665E0
2.868614298E1,-4.999204636E0,1.668993831E0,1.256231815E-1
2.870560683E1,-7.198806763E0,2.298904419E0,-2.325225353E0
2.872507069E1,-7.837092400E0,5.760720372E-1,-4.406383038E0
2.874453454E1,-1.151725388E1,-2.805584669E-1,-2.461616278E0
2.876399850E1,-8.990432739E0,9.092725813E-2,-1.016949639E-1
2.878346236E1,-5.963512421E0,1.884347796E-1,1.280758262E0
2.880292621E1,-3.434896946E0,-7.118647546E-2,1.785643935E0
2.882239006E1,-1.033699393E0,-1.788634956E-1,1.203589797E0
2.884185392E1,1.237687469E0,-1.076770201E-1,7.178467698E-3
2.886131777E1,3.055036306E0,-2.141576260E-1,-1.613958836E0
2.888078163E1,4.808377266E0,9.870393574E-2,-2.756531715E0
2.890024548E1,6.735795975E0,1.445264935E0,-1.899901152E0
2.891970933E1,1.107817078E1,1.637288928E0,-1.587039590E0
2.893917319E1,2.749592590E1,2.908475876E0,3.068794906E-1
2.895863704E1,6.610411835E1,5.879165173E0,-9.651450157E0
2.897810090E1,6.065984726E1,-2.203191519E0,-1.851386642E1
2.899756475E1,2.772084999E1,-1.545763373E0,-9.228518486E0
2.901702860E1,1.343988705E1,8.291130662E-1,-2.979662418E0
2.903649246E1,1.021735287E1,1.800599098E-1,-1.603191197E-1
2.905595631E1,8.127820015E0,-1.992024779E-1,1.142572761E0
2.907542017E1,4.597808838E0,1.399801224E-1,1.935195327E0
2.909488402E1,7.692924738E-1,6.514459848E-1,1.883749604E0
2.911434798E1,-3.147160053E0,4.139583111E-1,1.049850941E0
2.913381183E1,-6.711269379E0,-8.063812256E-1,-7.818548083E-1
2.915327569E1,-9.185447693E0,-1.104287624E0,-3.095714331E0
2.917273954E1,-1.015872860E1,-1.021137118E0,-3.428316593E0
2.919220340E1,-8.629714966E0,-5.455635786E-1,-1.985444546E0
2.921166725E1,-3.875176191E0,-1.555334684E-2,-4.462614357E-1
2.923113111E1,-1.229312658E0,4.271188378E-1,4.336991012E-1
2.925059496E1,4.205385745E-1,7.262216806E-1,3.690928817E-1
2.927005881E1,1.939382792E0,8.099704385E-1,-3.439682424E-1
2.928952267E1,3.493520975E0,4.755735099E-1,-1.445264935E0
2.930898652E1,4.871188641E0,-2.243271172E-1,-2.971885681E0
2.932845038E1,5.844469070E0,-6.687939167E-1,-4.141377926E0
2.934791423E1,9.187242508E0,-1.047458172E0,-4.884349346E0
2.936737808E1,2.617807770E1,1.354337573E0,-9.846465111E0
2.938684194E1,7.346803284E1,5.428118229E0,-6.122634888E0
2.940630579E1,5.406762314E1,1.386042476E0,-1.052423191E1
2.942576965E1,2.574856567E1,1.442872047E0,-6.566503525E0
2.944523350E1,1.700758553E1,-1.783849239E0,-4.805386066E0
2.946469746E1,1.228176022E1,-3.074777126E0,-4.898705959E0
2.948416131E1,8.730812073E0,-1.474576950E0,-3.357130051E0
2.950362517E1,5.575276852E0,1.405783296E-1,-2.029711723E0
2.952308902E1,3.672982693E0,6.843472719E-1,-1.351944804E0
2.954255288E1,-1.704886109E-1,1.404586911E0,-2.895315289E-1
2.956201673E1,-4.791028976E0,1.547558069E0,-1.507478207E-1
2.958148058E1,-7.000801086E0,3.972085714E-1,-2.108076811E0
2.960094444E1,-9.924830437E0,3.684946895E-1,-2.053041935E0
2.962040829E1,-1.082034397E1,4.217349887E-1,1.136590764E-1
2.963987215E1,-7.216753006E0,-2.410768867E-1,9.804590940E-1
2.965933600E1,-4.540979385E0,-7.471588850E-1,8.165507317E-1
2.967879986E1,-2.403590441E0,-1.129412293E0,5.509474277E-1
2.969826371E1,-3.667000830E-1,-1.338784218E0,5.138586760E-1
2.971772767E1,5.090730190E-1,-6.957131624E-1,-6.819544733E-2
2.973719152E1,2.108675003E0,1.179661512E0,-5.982056856E-1
2.975665538E1,6.594619274E0,3.489333630E0,-4.600201547E-1
2.977611923E1,2.153540421E1,5.789434433E0,-3.955335855E0
2.979558308E1,6.040740585E1,7.127620220E0,-3.223132133E0
2.981504694E1,6.789574432E1,-5.711069584E0,-1.230150127E1
2.983451079E1,3.722035599E1,-6.799205780E0,-1.298046494E1
2.985397465E1,2.028814507E1,-2.907279491E0,-6.577271461E0
2.987343850E1,1.225603771E1,2.427518606E0,-5.706881881E-1
2.989290246E1,1.092383385E1,2.164906263E0,-2.973082066E-1
2.991236631E1,6.979863644E0,9.678967595E-1,4.785645381E-2
2.993183017E1,2.575275421E0,7.674978375E-1,9.122636318E-1
2.995129402E1,-1.998006940E0,5.252245665E-1,2.178664923E0
2.997075788E1,-6.690331936E0,-2.991028363E-3,1.362114310E0
2.999022173E1,-8.598608017E0,-8.392825127E-1,-2.873780012E0
3.000968558E1,-9.364909172E0,-1.266999602E0,-5.519643784E0
3.002914944E1,-1.068275642E1,-8.003991842E-1,-3.720839262E0
3.004861363E1,-7.363911629E0,-4.384847581E-1,-1.558325768E0
3.006807749E1,-2.862414122E0,-2.315055877E-1,-5.036891699E-1
3.008754134E1,-6.340979785E-2,1.118644550E-1,5.587241054E-1
3.010700520E1,2.184048891E0,5.401797295E-1,2.865405083E-1
3.012646905E1,3.662813187E0,8.703892231E-1,-3.032902777E-1
3.014593301E1,4.459024906E0,1.515254974E0,-1.642672777E0
3.016539686E1,4.552943230E0,1.698904037E0,-3.354139090E0
3.018486072E1,4.999204636E0,1.057029366E0,-5.931209087E0
3.020432457E1,8.316255569E0,5.389832854E-1,-6.017350674E0
3.022378843E1,1.931307030E1,-2.392822644E-3,-6.025127411E0
3.024325228E1,5.882335663E1,4.828716278E0,-5.398207664E0
3.026271613E1,7.458547974E1,3.038884699E-1,-8.267202377E0
3.028217999E1,3.740879059E1,-2.154138565E0,-8.114061356E0
3.030164384E1,1.776132393E1,-3.914657831E0,-3.199802160E0
3.032110780E1,1.095075321E1,-3.271586657E0,-2.075773716E0
3.034057166E1,8.207980156E0,-3.792623878E-1,-2.531606436E0
3.036003551E1,5.266602516E0,1.593619823E0,-2.177468538E0
3.037949936E1,2.288136721E0,2.547757864E0,-1.021137118E0
3.039896322E1,-1.325623751E0,3.238685369E0,-2.524427772E-1
3.041842707E1,-5.697310925E0,2.439482689E0,-8.165507317E-1
3.043789093E1,-6.629913330E0,-5.000999570E-1,-2.409572363E0
3.045735478E1,-8.766703606E0,-2.399402857E0,-1.922034740E0
3.047681863E1,-9.767501831E0,-2.696112871E0,6.029912829E-1
3.049628249E1,-6.471987247E0,-2.201995134E0,2.059023857E0
3.051574645E1,-3.695116282E0,-1.459023595E0,1.955534339E0
3.053521030E1,-1.015154958E0,-7.166503668E-1,1.145563841E0
3.055467416E1,1.144965649E0,1.914258152E-1,5.982056609E-4
3.057413801E1,2.571686029E0,9.655039310E-1,-9.260223508E-1
3.059360186E1,3.681955814E0,1.447657704E0,-2.328814745E0
3.061306572E1,4.969294548E0,2.422134638E0,-2.985046148E0
3.063252957E1,7.784450054E0,3.248854876E0,-1.275374413E0
3.065199343E1,2.090190315E1,5.243870735E0,-2.732603550E0
3.067145738E1,6.495018005E1,5.537590027E0,-6.801598072E-1
3.069092124E1,6.923513031E1,-5.811567783E0,-1.219143105E1
3.071038509E1,3.574817276E1,-7.314260483E0,-9.568898201E0
3.072984895E1,1.808256149E1,-1.440479279E0,-3.553341627E0
3.074931280E1,1.177807140E1,2.629712105E0,9.888339639E-1
3.076877666E1,8.177471161E0,2.141576290E0,1.597209096E0
3.078824051E1,4.330410957E0,1.174277663E0,-1.196411345E-2
3.080770447E1,5.808576941E-1,8.350951076E-1,-8.321040869E-1
3.082716832E1,-4.552943230E0,5.282155871E-1,-5.557330847E-1
3.084663218E1,-8.925228119E0,-1.818545163E-1,-2.749353170E0
3.086609603E1,-9.701101303E0,-3.637090325E-1,-5.162514687E0
3.088555988E1,-1.150349522E1,-1.286142170E-1,-3.524627686E0
3.090502374E1,-8.743971825E0,6.161518395E-2,-7.776673436E-1
3.092448759E1,-3.574877024E0,8.554340899E-2,3.373879790E-1
3.094395145E1,-6.299105883E-1,-1.220339537E-1,5.431707501E-1
3.096341530E1,1.733600020E0,-6.107679605E-1,3.523431420E-1
3.098287926E1,3.491128206E0,-7.728816867E-1,-1.184447184E-1
3.100234311E1,4.555335999E0,-5.503492355E-1,-1.041476011E0
3.102180697E1,4.470390797E0,-7.118647546E-2,-1.765903115E0
3.104127082E1,3.236292601E0,3.457628787E-1,-2.892922640E0
3.106073468E1,2.519642353E0,4.779663086E-1,-4.063611031E0
3.108019853E1,2.760719061E0,5.102694035E-1,-3.915854216E0
3.109966238E1,9.657432556E0,7.836494446E-1,-7.293921471E0
3.111912624E1,5.039643478E1,7.969893932E0,-2.261217386E-1
3.113859020E1,7.588358307E1,2.174477577E0,-4.187439442E0
3.115805405E1,4.193960190E1,-1.938784599E0,-1.145444202E1
3.117751791E1,2.307877350E1,-2.135594130E0,-4.811367989E0
3.119698176E1,1.479661655E1,-1.006780148E0,-1.313061476E0
3.121644561E1,1.243549919E1,9.314061999E-1,-1.112662554E-1
3.123590947E1,7.958528042E0,1.741376638E0,6.448656917E-1
3.125537343E1,4.052245140E0,1.144965649E0,-2.003988922E-1
3.127483728E1,9.284151793E-1,3.397808075E-1,-1.949552298E0
3.129430113E1,-3.896113396E0,-4.384847581E-1,-3.047259569E0
3.131376499E1,-8.237292290E0,-1.736590981E0,-5.041079044E0
3.133322884E1,-1.039621639E1,-1.191625714E0,-4.792823792E0
3.135269270E1,-1.473918915E1,1.615155302E-2,-3.882354796E-1
3.137215655E1,-9.317052841E0,-1.878365725E-1,1.578664780E0
3.139162040E1,-4.564907551E0,-6.305087805E-1,1.925025821E0
3.141108436E1,-1.895713687E0,-9.565308690E-1,1.183250785E0
3.143054822E1,5.820540786E-1,-7.585247755E-1,5.270192027E-1
3.145001207E1,1.503290772E0,-7.178468257E-2,1.616351724E0
3.146947593E1,3.647858143E0,9.978070259E-1,2.070389748E0
3.148893978E1,5.018945694E0,4.302893162E0,-3.152543783E0
3.150840363E1,1.274955750E1,5.852844238E0,-6.422934055E0
3.152786759E1,3.131008339E1,6.209972858E0,3.293122053E0
3.154733145E1,5.950471497E1,6.631109715E0,-1.640878081E0
3.156679530E1,5.158088303E1,-2.282154560E0,-8.005187988E0
3.158625916E1,3.195734215E1,-3.495913982E0,-7.822137356E0
3.160572301E1,2.064587212E1,-4.606183469E-1,-4.853242397E0
3.162518686E1,1.522553062E1,1.155135155E0,-2.859423161E0
3.164465082E1,9.696913719E0,8.979067206E-1,-8.835497499E-1
3.166411468E1,4.917848587E0,5.060819983E-1,5.982056856E-1
3.168357853E1,1.317248821E0,4.707878530E-1,1.414158225E0
3.170304238E1,-2.737987280E0,1.674975827E-2,2.021935225E0
3.172250624E1,-8.510671616E0,-1.164706469E0,-1.423729509E-1
3.174197009E1,-1.042193890E1,-1.840080619E0,-3.384647608E0
3.176143395E1,-1.112662506E1,-6.993024349E-1,-3.783052683E0
3.178089791E1,-9.323035240E0,5.922235921E-2,-1.825723648E0
3.180036176E1,-3.652045488E0,3.720839322E-1,-1.740778536E-1
3.181982561E1,2.799602449E-1,1.011565804E0,6.969096065E-1
3.183928947E1,3.239881754E0,1.122233868E0,1.079761267E0
3.185875332E1,5.033900738E0,1.166501045E0,-6.580262445E-3
3.187821718E1,6.312266350E0,1.197607756E0,-1.891526341E0
3.189768103E1,6.317051888E0,1.484148264E0,-3.725026608E0
3.191714499E1,4.482355118E0,8.823533654E-1,-4.715655327E0
3.193660884E1,1.589432478E0,9.308080077E-1,-4.867001057E0
3.195607270E1,2.328814745E0,1.252044439E0,-2.599203587E0
3.197553655E1,1.040100193E1,8.476574421E-1,-3.552743435E0
3.199500041E1,3.675914001E1,4.315455437E0,7.607979774E0
3.201446426E1,7.789894104E1,3.763910055E0,-7.344769001E0
3.203392822E1,5.785845184E1,-5.582455158E0,-1.485643768E1
3.205339207E1,2.381815720E1,-2.768495798E0,-1.144845963E1
3.207285593E1,1.341536045E1,3.337987661E-1,-5.023132801E0
3.209231978E1,7.555935860E0,2.574677229E0,-2.028515339E0
3.211178363E1,5.044070244E0,2.799004316E0,9.332008660E-2
3.213124749E1,2.668595552E0,2.107478619E0,1.488933921E0
3.215071145E1,-3.619144261E-1,9.170492887E-1,1.610369682E0
3.217017530E1,-4.347758770E0,-1.381256819E0,1.193420291E0
3.218963916E1,-6.616154671E0,-3.124428272E0,-1.052243710E0
3.220910301E1,-6.885945320E0,-1.794018745E0,-2.423929453E0
3.222856686E1,-9.501300812E0,1.495514214E-1,-9.547362328E-1
3.224803072E1,-7.018148899E0,7.052844763E-1,2.937189937E-1
3.226749468E1,-4.064807415E0,5.413761139E-1,-1.704886109E-1
3.228695853E1,-1.770090580E0,8.255238086E-2,-1.250848055E0
3.230642238E1,6.532405615E-1,-3.900300860E-1,-1.681556106E0
3.232588624E1,2.583650351E0,-9.762716293E-1,-9.732806087E-1
3.234535009E1,3.849453449E0,-1.794616938E0,3.481557071E-1
3.236481395E1,4.555335999E0,-2.330609322E0,8.673982322E-2
3.238427780E1,6.116054535E0,-2.525026083E0,-7.938188910E-1
3.240374176E1,1.550190163E1,-4.929214716E-1,-4.562514782E0
3.242320561E1,3.773481369E1,1.092921734E0,-4.113262177E0
3.244266947E1,5.024149704E1,3.970889091E0,-1.032562828E1
3.246213332E1,3.521935654E1,2.866003275E0,-8.455039024E0
3.248159728E1,1.730668831E1,-9.355936646E-1,-2.825325251E0
3.250106113E1,8.772686005E0,-1.834098577E0,-7.160521746E-1
3.252052499E1,6.111867428E0,-1.287936807E0,9.152546525E-1
3.253998884E1,5.330012321E0,-7.663014531E-1,1.744367719E0
3.255945270E1,3.016751051E0,-2.075773627E-1,2.173879385E0
3.257891666E1,3.780659735E-1,-5.563312769E-2,2.073979139E0
3.259838051E1,-1.128814101E0,-1.824527234E-1,9.828519225E-1
3.261784436E1,-9.996016622E-1,-1.387837082E-1,-1.798206210E0
3.263730822E1,-5.473581553E-1,-1.734796353E-2,-4.438685894E0
3.265677207E1,7.016952634E-1,9.990034252E-2,-5.337789059E0
3.267623593E1,3.473181963E0,4.103690982E-1,-5.048855782E0
3.269569988E1,8.613563538E0,7.986045480E-1,-3.929612875E0
3.271516374E1,1.826082611E1,5.635097623E-1,-2.270190477E0
3.273462759E1,3.209433365E1,-3.230310678E-1,-2.096112728E0
3.275409145E1,2.885265541E1,-2.100300074E0,-2.819941521E0
3.277355530E1,1.706920052E1,-1.855035782E0,-3.054438114E0
3.279301926E1,8.386244774E0,-4.325026870E-1,-2.943171740E0
3.281248311E1,3.985246181E0,2.350948304E-1,-2.550748825E0
3.283194697E1,2.696112871E0,4.241278172E-1,-1.654038668E0
3.285141082E1,3.026322365E0,5.024927258E-1,-1.346560955E0
3.287087468E1,3.293122053E0,1.065404296E0,-7.794619799E-1
3.289033863E1,4.150351048E0,1.115055323E0,-7.788637877E-1
3.290980249E1,6.222535133E0,2.967100143E-1,-1.066002488E0
3.292926634E1,9.792626381E0,-9.224331379E-1,-1.565504193E0
3.294873020E1,1.493480206E1,-2.163111687E0,-2.325823545E0
3.296819405E1,1.843849373E1,-2.621935368E0,-3.263211966E0
3.298765801E1,1.651585960E1,-1.308275819E0,-3.658625841E0
3.300712186E1,1.222493076E1,-4.031906128E-1,-3.604787350E0
3.302658572E1,8.917451859E0,8.015955985E-2,-3.263810158E0
3.304604957E1,7.216753006E0,4.725824594E-1,-2.485544443E0
3.306551343E1,6.684948444E0,6.095715761E-1,-1.524826288E0
3.308497738E1,6.695117950E0,4.737788737E-1,-8.255237937E-1
3.310444124E1,7.147361279E0,3.038884699E-1,-7.950153351E-1
3.312390509E1,8.159524918E0,-5.802594870E-2,-1.272383451E0
3.314336895E1,9.655039787E0,-4.522434771E-1,-1.847259045E0
3.316283290E1,1.122173977E1,-6.897311211E-1,-2.383849621E0
3.318229676E1,1.225603771E1,-4.414757788E-1,-2.710469961E0
3.320176061E1,1.182652569E1,-8.973085135E-2,-2.536391973E0
3.322122447E1,1.026879883E1,-6.221338734E-2,-2.115255117E0
3.324068832E1,8.878568649E0,-1.639083475E-1,-1.800599098E0
3.326015228E1,8.169096947E0,-2.620140910E-1,-1.630708575E0
3.327961613E1,8.245666504E0,-3.194418252E-1,-1.557129383E0
3.329907999E1,8.885746956E0,-2.578266263E-1,-1.542772412E0
3.331854384E1,9.577870369E0,-2.075773627E-1,-1.534397483E0
3.333800780E1,9.988838196E0,-2.273181528E-1,-1.549950838E0
3.335747166E1,1.004626560E1,-2.123630047E-1,-1.591825247E0
3.337693551E1,9.837491989E0,-2.231307179E-1,-1.619940877E0
3.339639936E1,9.580264091E0,-2.632105052E-1,-1.551745534E0
3.341586332E1,9.342177391E0,-2.697907388E-1,-1.410568953E0
3.343532718E1,9.371489525E0,-2.297109663E-1,-1.476969719E0
3.345479103E1,9.481559753E0,-1.609173268E-1,-1.593619823E0
3.347425488E1,9.507881165E0,-1.908276081E-1,-1.634896040E0
3.349371884E1,9.658030510E0,-2.105683982E-1,-1.715055585E0
3.351318270E1,9.821340561E0,-1.573280841E-1,-1.622333765E0
3.353264655E1,9.986445427E0,-8.973085135E-2,-1.432702541E0
3.355211040E1,1.012762165E1,2.991028316E-2,-1.412961721E0
3.357157426E1,1.020120144E1,1.028913707E-1,-1.531406522E0
3.359103822E1,9.998409271E0,6.221338734E-2,-1.650449395E0
3.361050207E1,9.743574142E0,-2.033899166E-2,-1.634297848E0
3.362996593E1,9.557532310E0,-1.124626622E-1,-1.566102386E0
3.364942978E1,9.442078590E0,-1.752742529E-1,-1.523031592E0
3.366889374E1,9.454042435E0,-2.524427772E-1,-1.504487276E0
3.368835759E1,9.527621269E0,-2.255235314E-1,-1.490728498E0
3.370782145E1,9.530612946E0,-7.238288224E-2,-1.524826288E0
3.372728530E1,9.546165466E0,2.991028363E-3,-1.673779488E0
3.374674926E1,9.672387123E0,1.734796353E-2,-1.768894196E0
3.376621311E1,9.859625816E0,-1.615155302E-2,-1.795813441E0
3.378567697E1,9.999007225E0,-5.443671346E-2,-1.758724689E0
3.380514082E1,1.004626560E1,-1.447657645E-1,-1.712662816E0
3.382460478E1,1.003908730E1,-2.279163599E-1,-1.682752490E0
3.384406863E1,9.911071777E0,-2.195414752E-1,-1.728814363E0
3.386353249E1,9.742377281E0,-1.998006850E-1,-1.874178290E0
3.388299634E1,9.689137459E0,-2.763710022E-1,-2.042274237E0
3.390246030E1,9.671789169E0,-3.236292601E-1,-1.927418590E0
3.392192416E1,9.538389206E0,-4.534398913E-1,-1.599003673E0
3.394138801E1,9.614959717E0,-6.131607890E-1,-1.412961721E0
3.396085186E1,9.832108498E0,-6.191428304E-1,-1.362114310E0
3.398031582E1,1.013838959E1,-3.960121572E-1,-1.382453322E0
3.399977968E1,1.035673428E1,-4.187439568E-3,-1.447059512E0
3.401924353E1,1.029811001E1,2.350948304E-1,-1.450648785E0
3.403870738E1,1.009950638E1,2.368894368E-1,-1.350748420E0
3.405817134E1,9.935597420E0,4.666004330E-2,-1.347159147E0
3.407763520E1,9.774680138E0,-1.567298770E-1,-1.363310695E0
3.409709905E1,9.577870369E0,-3.152543902E-1,-1.266401410E0
3.411656290E1,9.441479683E0,-4.133601189E-1,-1.125823021E0
3.413602686E1,9.504889488E0,-4.211367965E-1,-1.107876897E0
3.415549072E1,9.630513191E0,-3.571287692E-1,-1.195813060E0
3.417495457E1,9.817750931E0,-2.249253243E-1,-1.334596872E0
3.419441843E1,1.002173901E1,-5.264209956E-2,-1.458425403E0
3.421388228E1,1.018804073E1,4.546362907E-2,-1.476371527E0
3.423334624E1,1.012702370E1,1.692921966E-1,-1.291526079E0
3.425281009E1,9.916455269E0,1.262213886E-1,-1.085145116E0
3.427227395E1,9.750154495E0,8.374879137E-3,-8.967102766E-1
3.429173780E1,9.705886841E0,-1.525424421E-1,-7.902296782E-1
3.431120176E1,9.868000984E0,-2.249253243E-1,-7.046862841E-1
3.433066561E1,1.001456070E1,-2.440679073E-1,-8.883354068E-1
3.435012947E1,1.025623608E1,-1.232303679E-1,-1.202991605E0
3.436959332E1,1.050568771E1,5.982056609E-4,-1.532602906E0
3.438905728E1,1.070847988E1,1.543370634E-1,-1.809572101E0
3.440852113E1,1.058764172E1,3.421736360E-1,-1.832902193E0
3.442798499E1,1.031067276E1,4.504488707E-1,-1.612762451E0
3.444744884E1,9.974481583E0,5.706881881E-1,-1.311864972E0
3.446691280E1,9.486345291E0,8.111668825E-1,-1.009172916E0
3.448637666E1,8.913862228E0,8.811569214E-1,-9.559326172E-1
3.450584051E1,8.319844246E0,5.832505226E-1,-1.098903775E0
3.452530436E1,8.127820015E0,3.140579760E-1,-1.183250785E0
3.454476832E1,8.246863365E0,8.434699476E-2,-1.292722464E0
3.456423218E1,8.746364594E0,-2.219343036E-1,-1.446461320E0
3.458369603E1,9.468399048E0,-2.428714931E-1,-1.470987678E0
3.460315988E1,1.016770172E1,-1.531406492E-1,-1.377069473E0
3.462262384E1,1.064207840E1,-3.948157281E-2,-1.338784218E0
3.464208770E1,1.069950676E1,1.968096644E-1,-1.385444283E0
3.466155155E1,1.007438183E1,5.611169338E-1,-1.566102386E0
3.468101541E1,9.412766457E0,6.604190469E-1,-2.013560295E0
3.470047936E1,9.241081238E0,7.968099117E-1,-2.166102648E0
3.471994322E1,9.074181557E0,1.049252748E0,-1.948355794E0
3.473940707E1,9.174081802E0,1.228714466E0,-1.604387641E0
3.475887093E1,9.394221306E0,1.372283816E0,-1.315454245E0
3.477833478E1,9.610772133E0,1.557727575E0,-1.081555843E0
3.479779874E1,9.767501831E0,1.587637782E0,-8.063812256E-1
3.481726259E1,1.002054310E1,1.276570916E0,-5.072783828E-1
3.483672645E1,1.031964588E1,6.658028960E-1,-1.716850251E-1
3.485619040E1,1.054397297E1,9.870393574E-2,-8.913264424E-2
3.487565426E1,1.071206856E1,-1.555334777E-1,-1.363908947E-1
3.489511811E1,1.049133110E1,-9.930214286E-2,-1.950150430E-1
3.491458197E1,1.032562828E1,-3.349951655E-2,-2.219343036E-1
3.493404593E1,1.026700401E1,1.543370634E-1,-2.111666054E-1
3.495350978E1,1.010907745E1,2.003988922E-1,-1.782652885E-1
3.497297363E1,9.765109062E0,1.908276081E-1,-7.417750359E-2
3.499243749E1,9.449854851E0,3.026920557E-1,-1.076770201E-1
3.501190145E1,9.486943245E0,6.358926296E-1,-3.200400174E-1
3.503136530E1,9.285946846E0,1.280160069E0,-2.985046208E-1
3.505082916E1,9.174081802E0,1.656431437E0,-3.337987661E-1
3.507029311E1,9.172286987E0,1.797009826E0,-4.701896608E-1
3.508975697E1,9.368498802E0,1.628913999E0,-3.858426511E-1
3.510922082E1,9.637093544E0,1.408176184E0,-1.692921966E-1
3.512868468E1,9.911071777E0,1.278963685E0,-1.639083475E-1
3.514814863E1,1.005464077E1,1.168295622E0,-2.919243574E-1
3.516761249E1,1.012283611E1,1.185045362E0,-3.930211067E-1
3.518707634E1,1.008634567E1,1.284945726E0,-3.619144261E-1
3.520654020E1,9.972686768E0,1.316650629E0,-2.614158690E-1
3.522600416E1,9.927223206E0,1.369292736E0,-2.350948304E-1
3.524546801E1,9.856036186E0,1.522433400E0,-3.774677813E-1
3.526493186E1,9.682557106E0,1.634297848E0,-4.839483798E-1
3.528439572E1,9.522835732E0,1.552941918E0,-4.773681164E-1
3.530385968E1,9.422935486E0,1.336391449E0,-3.397808075E-1
3.532332353E1,9.445069313E0,1.121037364E0,-1.944168359E-1
3.534278738E1,9.597611427E0,1.006181955E0,-2.285145670E-1
3.536225134E1,9.784252167E0,9.702895880E-1,-3.427718580E-1
3.538171520E1,1.008574772E1,9.792626500E-1,-7.585247755E-1
3.540117905E1,1.046022415E1,8.811569214E-1,-1.135394335E0
3.542064290E1,1.049850941E1,8.261220455E-1,-1.253839016E0
3.544010686E1,1.006540871E1,8.823533654E-1,-1.159322619E0
3.545957072E1,9.507282257E0,8.865407705E-1,-1.023529887E0
3.547903457E1,9.177073479E0,8.081758618E-1,-8.626125455E-1
3.549849843E1,8.892925262E0,7.100701332E-1,-6.693921089E-1
3.551796238E1,8.792427063E0,6.658028960E-1,-5.276173949E-1
3.553742624E1,8.776275635E0,6.460621357E-1,-4.785645306E-1
3.555689009E1,8.861220360E0,7.603194118E-1,-4.049852192E-1
3.557635405E1,9.018548965E0,1.007378340E0,-4.049852192E-1
3.559581791E1,9.233902931E0,1.267597795E0,-5.754738450E-1
3.561528176E1,9.667003632E0,1.223928809E0,-8.434699774E-1
3.563474561E1,1.004387283E1,7.663014531E-1,-9.858429432E-1
3.565420957E1,1.034058285E1,1.956132501E-1,-8.955138922E-1
3.567367343E1,1.034237766E1,-3.451646566E-1,-6.921239495E-1
3.569313728E1,1.022512913E1,-7.914260626E-1,-3.726821244E-1
3.571260113E1,1.003669453E1,-9.571290612E-1,-1.375873014E-2
3.573206509E1,9.789037704E0,-9.613165259E-1,3.457628787E-1
3.575152895E1,9.778269768E0,-9.601200819E-1,4.929214716E-1
3.577099280E1,1.013420200E1,-9.140582681E-1,4.396811724E-1
3.579045676E1,1.067318535E1,-4.450650215E-1,4.169493318E-1
3.580992061E1,1.091665554E1,1.483550072E-1,4.396811724E-1
3.582938447E1,1.073180962E1,5.318048596E-1,3.098705411E-1
3.584884843E1,1.017188931E1,6.418746710E-1,3.529413417E-2
3.586831228E1,9.457631111E0,2.297109663E-1,4.366901144E-2
3.588777613E1,8.970691681E0,-5.288137794E-1,-1.686939895E-1
3.590723999E1,8.513663292E0,-1.281954765E0,-4.420739710E-1
3.592670395E1,8.420941353E0,-1.867598057E0,-8.626125455E-1
3.594616780E1,8.888737679E0,-1.813161373E0,-1.655235052E0
3.596563166E1,9.939785004E0,-1.522433400E0,-2.142174482E0
3.598509551E1,1.092682457E1,-1.381256819E0,-2.261815548E0
3.600455947E1,1.192283726E1,-1.339980721E0,-2.143969059E0
3.602402332E1,1.269452190E1,-1.272981644E0,-1.599003673E0
3.604348718E1,1.239721394E1,-1.129412293E0,-1.171884894E0
3.606295113E1,1.101535892E1,-7.812566161E-1,-1.147358418E0
3.608241499E1,9.461220741E0,-7.944171429E-1,-1.307079315E0
3.610187884E1,8.266604424E0,-9.792626500E-1,-1.557727575E0
3.612134270E1,7.690532207E0,-1.301695466E0,-1.813161373E0
3.614080666E1,7.662416458E0,-1.587637782E0,-1.939980984E0
3.616027051E1,8.061419487E0,-1.682154298E0,-1.862812400E0
3.617973436E1,8.865407944E0,-1.561915040E0,-1.692323804E0
3.619919832E1,9.823733330E0,-1.391426325E0,-1.649253011E0
3.621866218E1,1.062712383E1,-1.261615753E0,-1.682752490E0
3.623812603E1,1.101177025E1,-1.202991605E0,-2.038684845E0
3.625758988E1,1.097827053E1,-1.574477315E0,-2.442473650E0
3.627705384E1,1.047099209E1,-1.872383714E0,-2.741576433E0
3.629651770E1,9.612566948E0,-1.721037745E0,-2.967698336E0
3.631598155E1,9.220144272E0,-1.417747378E0,-3.056232691E0
3.633544551E1,8.936594009E0,-1.137787223E0,-2.809772015E0
3.635490936E1,8.809774399E0,-6.376872063E-1,-2.523231506E0
3.637437322E1,9.241679192E0,3.589233849E-3,-2.274976015E0
3.639383707E1,1.016291618E1,3.738785386E-1,-2.172683001E0
3.641330103E1,1.073539925E1,7.064808607E-1,-2.347957134E0
3.643276488E1,1.071924686E1,8.201399446E-1,-2.385046005E0
3.645222874E1,1.017547798E1,8.201399446E-1,-2.111067772E0
3.647169270E1,9.506684303E0,1.342373490E0,-1.630110383E0
3.649115655E1,9.510273933E0,2.344966173E0,-9.062815905E-1
3.651062041E1,9.981659889E0,3.155534744E0,-1.148554832E-1
3.653008426E1,1.006122112E1,3.166900873E0,6.005984545E-1
3.654954822E1,9.452845573E0,2.471187592E0,1.057029366E0
3.656901207E1,8.593822479E0,1.542174220E0,1.209571838E0
3.658847593E1,8.541180611E0,8.799605370E-1,1.054636598E0
3.660793988E1,9.470193863E0,7.818548083E-1,7.513462901E-1
3.662740374E1,1.102911758E1,8.913264275E-1,4.540380836E-1
3.664686759E1,1.224885941E1,9.948160052E-1,2.781656384E-1
3.666633155E1,1.217049408E1,1.332802176E0,1.184447184E-1
3.668579540E1,1.102253723E1,1.540379524E0,3.768695518E-2
3.670525926E1,9.612566948E0,1.295115232E0,5.982056609E-4
3.672472311E1,8.630312920E0,8.362914920E-1,4.067798331E-2
3.674418707E1,8.333602905E0,4.528416991E-1,1.830509305E-1
3.676365093E1,8.550153732E0,3.242274821E-1,3.774677813E-1
3.678311478E1,8.919844627E0,3.822534084E-1,4.654040039E-1
3.680257874E1,9.303893089E0,5.916253924E-1,4.695914388E-1
3.682204259E1,9.739984512E0,8.578268886E-1,3.517449200E-1
3.684150645E1,1.011446095E1,1.057627559E0,1.890329868E-1
3.686097030E1,1.030289650E1,1.111466169E0,-3.589233849E-3
3.688043426E1,1.021735287E1,1.122233868E0,-2.099701911E-1
3.689989811E1,9.973882675E0,1.065404296E0,-3.882354796E-1
3.691936197E1,9.664012909E0,9.726824164E-1,-4.731806815E-1
3.693882593E1,9.344570160E0,9.260223508E-1,-5.718846321E-1
3.695828978E1,9.218349457E0,1.002592683E0,-6.376872063E-1
3.697775363E1,9.189635277E0,1.118046403E0,-7.818548083E-1
3.699721749E1,9.220742226E0,1.277169108E0,-1.122233868E0
3.701668145E1,9.369695663E0,1.433898926E0,-1.463211060E0
3.703614530E1,9.876375198E0,1.414756417E0,-1.661217093E0
3.705560916E1,1.024666500E1,1.450648785E0,-1.731207132E0
3.707507311E1,1.059900761E1,1.395015597E0,-1.596610904E0
3.709453697E1,1.076710415E1,1.083350420E0,-1.544566989E0
3.711400082E1,1.059422207E1,7.232306600E-1,-1.667797327E0
3.713346478E1,1.016889763E1,6.520441771E-1,-1.926222205E0
3.715292863E1,9.619147301E0,8.787640929E-1,-2.297708035E0
3.717239249E1,9.465408325E0,1.221535921E0,-2.682354212E0
3.719185634E1,9.658628464E0,1.468594909E0,-2.887538671E0
3.721132030E1,1.009531879E1,1.217348576E0,-2.629113913E0
3.723078416E1,1.029212856E1,1.316052489E-2,-1.820937991E0
3.725024801E1,1.005284595E1,-1.288534999E0,-1.046859860E0
3.726971197E1,9.477372169E0,-2.047059774E0,-6.502495408E-1
3.728917582E1,8.783453941E0,-2.108076811E0,-3.708875179E-1
3.730863968E1,8.297112465E0,-1.421336651E0,-1.477568001E-1
3.732810353E1,8.261219978E0,-4.881358147E-1,-1.752742529E-1
3.734756749E1,8.680562019E0,1.100698411E-1,-3.559323549E-1
3.736703134E1,9.260822296E0,1.483550072E-1,-4.193421602E-1
3.738649520E1,9.980463028E0,-1.758724600E-1,-5.844469070E-1
3.740595916E1,1.065344429E1,-5.246263742E-1,-6.520441771E-1
3.742542301E1,1.090708351E1,-7.842476368E-1,-5.928218365E-1
3.744488686E1,1.071625614E1,-8.823533654E-1,-5.479564071E-1
3.746435082E1,1.039322472E1,-9.397810698E-1,-4.833501875E-1
3.748381468E1,1.021316528E1,-9.894321561E-1,-3.086741269E-1
3.750327853E1,1.050628567E1,-7.812566161E-1,-1.046859920E-1
3.752274249E1,1.089751244E1,-4.079762697E-1,4.666004330E-2
3.754220634E1,1.099681473E1,-4.606183618E-2,1.154536903E-1
3.756167020E1,1.060917759E1,2.392822653E-1,7.657032460E-2
3.758113405E1,9.955936432E0,3.720839322E-1,-1.328016520E-1
3.760059801E1,9.291928291E0,1.866401732E-1,-3.684946895E-1
3.762006186E1,8.959325790E0,-2.380858511E-1,-5.557330847E-1
3.763952572E1,9.028120041E0,-5.359922647E-1,-6.041877270E-1
3.765898968E1,9.337990761E0,-6.406782866E-1,-5.198407173E-1
3.767845353E1,9.705288887E0,-6.388836503E-1,-4.163511395E-1
3.769791738E1,9.934401512E0,-5.168496966E-1,-2.536391914E-1
3.771738134E1,1.007557774E1,-4.091726840E-1,-1.423729509E-1
3.773684520E1,9.994820595E0,-3.008974493E-1,1.561316848E-1
3.775630905E1,1.000738239E1,-2.297109663E-1,3.451646566E-1
3.777577301E1,1.013838959E1,-7.896314561E-2,2.799602449E-1
3.779523686E1,1.016829967E1,-3.290131316E-2,3.236292601E-1
3.781470072E1,1.013958549E1,-3.708875179E-2,3.014956415E-1
3.783416468E1,1.017009449E1,1.674975827E-2,4.426721856E-2
3.785362853E1,1.014257717E1,6.041877344E-2,-8.434699476E-2
3.787309238E1,9.965508461E0,-2.392822690E-2,5.742774159E-2
3.789255634E1,9.757930756E0,-1.782652885E-1,2.590230405E-1
3.791202020E1,9.638887405E0,-3.637090325E-1,4.456632137E-1
3.793148405E1,9.761520386E0,-4.277170599E-1,4.959124923E-1
3.795094801E1,1.012463093E1,-3.774677813E-1,1.998006850E-1
3.797041186E1,1.056490993E1,-3.038884699E-1,-4.851447940E-1
3.798987572E1,1.076949692E1,-2.045863420E-1,-1.155135155E0
3.800933968E1,1.083230782E1,-1.274178028E-1,-1.631306887E0
3.802880353E1,1.079641533E1,-3.888336942E-2,-1.849053741E0
3.804826738E1,1.026700401E1,1.393819153E-1,-1.778465390E0
3.806773134E1,9.729216576E0,4.893322289E-1,-1.469193101E0
3.808719520E1,9.480362892E0,7.405785918E-1,-1.265205026E0
3.810665905E1,9.436096191E0,6.089733839E-1,-1.128814101E0
3.812612290E1,9.273384094E0,8.494520187E-2,-1.029511929E0
3.814558686E1,9.389435768E0,-4.534398913E-1,-1.232303619E0
3.816505072E1,9.720842361E0,-5.401797295E-1,-1.490728498E0
3.818451457E1,9.770493507E0,-2.781656384E-1,-1.561915040E0
3.820397853E1,9.381061554E0,2.889333367E-1,-1.587039590E0
3.822344238E1,8.981459618E0,8.584251404E-1,-1.737189293E0
3.824290624E1,8.653044701E0,1.296311617E0,-1.858026743E0
3.826237020E1,8.679964066E0,1.494915962E0,-1.836491346E0
3.828183405E1,9.096315384E0,1.389033556E0,-1.658824325E0
3.830129791E1,9.667003632E0,9.996016622E-1,-1.342971683E0
3.832076176E1,1.017787075E1,5.641079545E-1,-1.068993568E0
3.834022572E1,1.043330479E1,2.015953064E-1,-9.020941257E-1
3.835968957E1,1.053141022E1,-2.991028363E-3,-8.494520187E-1
3.837915343E1,1.059601688E1,-5.563312769E-2,-7.722834945E-1
3.839861738E1,1.059482002E1,1.268195957E-1,-7.579265833E-1
3.841808124E1,1.034417248E1,4.402793646E-1,-6.933203340E-1
3.843754509E1,9.749555588E0,6.161518097E-1,-6.227321029E-1
3.845700905E1,9.110671997E0,5.826523304E-1,-6.209374666E-1
3.847647290E1,8.718847275E0,5.306084156E-1,-7.130611539E-1
3.849593676E1,8.548956871E0,5.581258535E-1,-6.011967063E-1
3.851540072E1,8.577073097E0,6.394818425E-1,-4.516452849E-1
3.853486457E1,9.020941734E0,7.298108935E-1,-4.606183469E-1
3.855432843E1,9.579067230E0,7.519445419E-1,-3.954139352E-1
3.857379238E1,1.004746246E1,6.317051649E-1,-2.021935135E-1
3.859325624E1,1.028495026E1,4.965106845E-1,6.340979785E-2
3.861272009E1,1.023170948E1,2.524427772E-1,2.386840582E-1
3.863218405E1,9.978070259E0,1.794616925E-3,3.122633696E-1
3.865164791E1,9.662816048E0,-2.087737769E-1,3.385843933E-1
3.867111176E1,9.535398483E0,-3.230310678E-1,3.517449200E-1
3.869057572E1,9.777072906E0,-2.374876440E-1,2.333002090E-1
3.871003957E1,1.028554821E1,1.603191197E-1,1.130608693E-1
3.872950343E1,1.064566803E1,6.119644046E-1,2.751746029E-2
3.874896738E1,1.076770210E1,9.176474810E-1,1.046859920E-1
3.876843124E1,1.067498016E1,8.452646136E-1,3.834498227E-1
3.878789509E1,1.058824062E1,4.384847581E-1,6.885347366E-1
3.880735905E1,1.034776115E1,2.691925503E-2,7.722834945E-1
3.882682290E1,1.016590691E1,-9.810572863E-2,3.140579760E-1
3.884628676E1,1.020778179E1,1.890329868E-1,-3.373879790E-1
3.886575072E1,1.021795082E1,4.893322289E-1,-1.002592683E0
3.888521457E1,1.021376324E1,5.252245665E-1,-1.469791293E0
3.890467843E1,1.027657509E1,2.069791555E-1,-1.792224169E0
3.892414238E1,1.029751205E1,-2.536391914E-1,-2.143969059E0
3.894360624E1,1.038305569E1,-6.741777658E-1,-1.872981906E0
3.896307009E1,1.015513897E1,-9.110672474E-1,-1.446461320E0
3.898253405E1,9.397810936E0,-7.280163169E-1,-1.381256819E0
3.900199790E1,8.712266922E0,-1.914258115E-2,-1.754537225E0
3.902146176E1,8.583653450E0,7.118647099E-1,-2.064407825E0
3.904092572E1,8.778668404E0,1.181456208E0,-2.123630047E0
3.906038957E1,8.986844063E0,1.140778184E0,-1.966900229E0
3.907985343E1,9.071190834E0,6.197410822E-1,-1.843669891E0
3.909931738E1,9.083154678E0,1.220339537E-1,-1.803590059E0
3.911878124E1,9.261420250E0,-1.316052489E-2,-1.861017823E0
3.913824509E1,9.622735977E0,2.847459018E-1,-1.795813441E0
3.915770905E1,1.009352398E1,7.776673436E-1,-1.579262972E0
3.917717290E1,1.039741230E1,1.341177106E0,-1.245464206E0
3.919663676E1,1.043210888E1,1.554736495E0,-9.529415965E-1
3.921610072E1,1.020000458E1,1.298704505E0,-7.238288522E-1
3.923556457E1,9.687342644E0,7.322037220E-1,-6.113662124E-1
3.925502843E1,9.355937004E0,7.417750359E-2,-5.156532526E-1
3.927449238E1,9.366703987E0,-4.917250574E-1,-5.862415433E-1
3.929395624E1,9.354740143E0,-1.004985452E0,-6.747759581E-1
3.931342009E1,9.421140671E0,-1.810170293E0,-7.310073376E-1
3.933288405E1,9.680762291E0,-2.719442844E0,-8.500502706E-1
3.935234790E1,9.970293999E0,-2.964707375E0,-1.065404296E0
3.937181176E1,1.050688457E1,-2.005783558E0,-1.368096352E0
3.939127572E1,1.110628605E1,-5.790630579E-1,-1.662413478E0
3.941073957E1,1.163330555E1,4.911268353E-1,-1.607378602E0
3.943020343E1,1.146999550E1,1.010369420E0,-1.395015597E0
3.944966738E1,1.091246796E1,8.578268886E-1,-1.189831018E0
3.946913124E1,1.016112137E1,2.422732860E-1,-1.237089276E0
3.948859509E1,9.248857498E0,-4.145565331E-1,-1.412961721E0
3.950805905E1,8.858229637E0,-4.953143001E-1,-1.531406522E0
3.952752291E1,9.263215065E0,3.409772366E-2,-1.376471281E0
3.954698676E1,9.905687332E0,3.152543902E-1,-1.385444283E0
3.956645072E1,1.013479996E1,1.710868180E-1,-1.587039590E0
3.958591457E1,1.000439167E1,-4.384847581E-1,-1.639681697E0
3.960537843E1,9.670592308E0,-1.165304661E0,-1.740180254E0
3.962484238E1,9.530612946E0,-1.457229018E0,-1.801795483E0
3.964430624E1,9.619147301E0,-1.274776220E0,-1.788634896E0
3.966377009E1,9.613762856E0,-4.480560422E-1,-1.804188251E0
3.968323405E1,9.400801659E0,6.759724021E-1,-1.717448473E0
3.970269790E1,9.039485931E0,1.700100541E0,-1.780260086E0
3.972216186E1,8.694320679E0,2.422732830E0,-1.926222205E0
3.974162572E1,8.602197647E0,2.542374134E0,-1.858624935E0
3.976108957E1,8.872586250E0,2.019542217E0,-1.722234130E0
3.978055343E1,9.522237778E0,1.443470240E0,-1.414158225E0
3.980001738E1,1.000379372E1,8.177471161E-1,-9.397810698E-1
3.981948124E1,1.014556789E1,3.188436031E-1,-5.635097623E-1
3.983894509E1,9.945767403E0,4.905286431E-2,-4.773681164E-1
3.985840905E1,9.630513191E0,3.828516230E-2,-4.402793646E-1
