"Time (s)","Gyroscope x (rad/s)","Gyroscope y (rad/s)","Gyroscope z (rad/s)"
3.426079200E-2,-1.857028902E-1,-1.081230640E-1,1.214093715E-2
5.372454200E-2,-1.904370934E-1,-1.165224537E-1,4.283689335E-2
7.318839700E-2,-1.795942485E-1,-1.127045527E-1,6.742420048E-2
9.265225100E-2,-1.476765573E-1,-9.101885557E-2,7.322741300E-2
1.121160010E-1,-1.079703495E-1,-6.673697382E-2,6.330086291E-2
1.315798550E-1,-6.765327603E-2,-5.482511222E-2,5.322159454E-2
1.510437090E-1,-1.908952370E-2,-4.886918142E-2,5.261072889E-2
1.705074590E-1,4.489856213E-2,-3.817904741E-2,6.345357746E-2
1.899713130E-1,1.142317131E-1,-1.389717404E-2,7.780890167E-2
2.094351670E-1,1.663079411E-1,-1.069013379E-3,8.697187155E-2
2.288989170E-1,1.821904182E-1,-2.580903657E-2,9.476039559E-2
2.483627720E-1,1.615737379E-1,-6.673697382E-2,8.712458611E-2
2.678266260E-1,1.235474050E-1,-8.002328873E-2,5.780307949E-2
2.872903760E-1,8.903354406E-2,-7.498364896E-2,2.725984156E-2
3.067542300E-1,5.482511222E-2,-6.017018110E-2,8.399390499E-4
3.262180840E-1,2.519817278E-2,-5.329795182E-2,-2.359465137E-2
3.456818340E-1,4.428769462E-3,-6.566796452E-2,-3.962985426E-2
3.651456880E-1,-1.740964688E-2,-7.895427197E-2,-4.925097153E-2
3.846094380E-1,-4.703658819E-2,-7.223475724E-2,-6.268999726E-2
4.040732920E-1,-8.368847519E-2,-6.337722391E-2,-7.765618712E-2
4.235371470E-1,-1.163697392E-1,-6.322450191E-2,-8.376483619E-2
4.430008970E-1,-1.547015011E-1,-6.291907281E-2,-7.307469845E-2
4.624647510E-1,-2.171624303E-1,-7.269290835E-2,-4.543306679E-2
4.819286050E-1,-3.028362095E-1,-8.811724186E-2,-1.046105940E-2
5.013923550E-1,-3.677406013E-1,-9.178243577E-2,1.259908639E-2
5.208562090E-1,-3.802633286E-1,-8.582650125E-2,1.794415340E-2
5.403200630E-1,-3.393353820E-1,-6.612611562E-2,1.351538301E-2
5.597838130E-1,-2.848156989E-1,-5.849030241E-2,1.488982886E-2
5.792476670E-1,-2.532034516E-1,-8.246674389E-2,1.473711245E-2
5.987114170E-1,-2.538143098E-1,-1.134681329E-1,5.879573524E-3
6.181752720E-1,-2.512181401E-1,-1.128572673E-1,2.519817324E-3
6.376391260E-1,-2.376264036E-1,-8.246674389E-2,1.756236190E-3
6.571028760E-1,-2.122755051E-1,-7.147117704E-2,-5.726857111E-3
6.765667300E-1,-1.882990748E-1,-9.880737960E-2,-2.099847607E-2
6.960304800E-1,-1.809686869E-1,-1.324049383E-1,-3.886627033E-2
7.154943340E-1,-1.959348768E-1,-1.365282834E-1,-4.451677203E-2
7.349581880E-1,-2.084576041E-1,-1.191186309E-1,-4.085158184E-2
7.544219380E-1,-2.133445293E-1,-1.079703495E-1,-4.069886729E-2
7.738857920E-1,-2.018908113E-1,-1.072067693E-1,-4.726566374E-2
7.933496470E-1,-1.908952445E-1,-1.108719558E-1,-6.864593178E-2
8.128133970E-1,-2.005163580E-1,-1.127045527E-1,-1.048396677E-1
8.322772510E-1,-2.087630332E-1,-1.253799945E-1,-1.327867359E-1
8.517411050E-1,-2.018908113E-1,-1.631008983E-1,-1.277471036E-1
8.712048550E-1,-1.895207912E-1,-1.855501831E-1,-1.001054645E-1
8.906687090E-1,-1.571449637E-1,-1.756236255E-1,-6.604975462E-2
9.101324590E-1,-1.020144150E-1,-1.740964651E-1,8.475748822E-3
9.295963130E-1,-5.482511222E-2,-1.904370934E-1,1.008690447E-1
9.490600630E-1,-5.085449293E-2,-1.937968582E-1,1.648571342E-1
9.685239170E-1,-9.285144508E-2,-1.554650813E-1,1.700494885E-1
9.879877720E-1,-1.501200199E-1,-7.422006875E-2,1.198058575E-1
1.007451522E0,-2.054032832E-1,-6.108647678E-3,4.665479809E-2
1.026915376E0,-2.548833191E-1,-6.261364091E-3,-1.382081583E-2
1.046379230E0,-2.895499170E-1,-1.036942974E-1,-3.947713599E-2
1.065842980E0,-2.919933498E-1,-2.008218020E-1,-4.833467677E-2
1.085306834E0,-2.583957911E-1,-2.063195854E-1,-4.390590638E-2
1.104770584E0,-1.947131455E-1,-9.636391699E-2,-2.542724647E-2
1.124234438E0,-9.773836285E-2,4.810560122E-2,-2.832885459E-2
1.143698188E0,6.566796452E-3,1.504254490E-1,-6.849320978E-2
1.163162042E0,8.826996386E-2,2.060141414E-1,-1.364519149E-1
1.182625897E0,1.154534444E-1,2.105956376E-1,-1.949422210E-1
1.202089647E0,9.758564830E-2,1.808159798E-1,-2.422842383E-1
1.221553501E0,6.887500733E-2,1.395826042E-1,-2.473238707E-1
1.241017251E0,5.054906011E-2,8.857539296E-2,-2.050214857E-1
1.260481105E0,6.520981342E-2,3.634645417E-2,-1.517235339E-1
1.279944855E0,1.160643101E-1,-1.481347065E-2,-1.149189398E-1
1.299408709E0,1.991419196E-1,-6.414080411E-2,-1.010217592E-1
1.318872563E0,3.002400398E-1,-8.659008145E-2,-1.040760875E-1
1.338336313E0,3.998109996E-1,-6.154462695E-2,-1.078939885E-1
1.357800167E0,4.515817761E-1,6.261364091E-3,-1.020907760E-1
1.377263917E0,4.514290690E-1,8.918625861E-2,-8.651372790E-2
1.396727772E0,4.216494262E-1,1.519526094E-1,-7.780890167E-2
1.416191522E0,3.882045746E-1,1.704312712E-1,-9.185878932E-2
1.435655376E0,3.668242991E-1,1.576031148E-1,-1.262199283E-1
1.455119230E0,3.320049942E-1,1.295033395E-1,-1.579848975E-1
1.474582980E0,2.791652083E-1,1.101083755E-1,-1.691331863E-1
1.494046834E0,2.133445293E-1,1.020144150E-1,-1.673005968E-1
1.513510584E0,1.572976857E-1,9.926552325E-2,-1.582903415E-1
1.532974438E0,1.261435747E-1,8.857539296E-2,-1.485165060E-1
1.552438188E0,1.230892539E-1,6.246092543E-2,-1.309541315E-1
1.571902042E0,1.343902498E-1,4.337139800E-2,-1.075885594E-1
1.591365792E0,1.559232324E-1,5.879573524E-2,-7.231111825E-2
1.610829647E0,1.586721241E-1,1.041524485E-1,-4.283689335E-2
1.630293501E0,1.463021189E-1,1.530216336E-1,-4.100430012E-2
1.649757251E0,1.290451884E-1,1.669187993E-1,-4.940368980E-2
1.669221105E0,1.156061590E-1,1.534797698E-1,-4.741837829E-2
1.688684855E0,1.154534444E-1,1.631008983E-1,-2.817613818E-2
1.708148709E0,1.146898642E-1,2.054032832E-1,8.475748822E-3
1.727612459E0,1.020144150E-1,2.513708472E-1,5.245801434E-2
1.747076313E0,7.742711157E-2,2.780961990E-1,8.895718306E-2
1.766540167E0,6.948586553E-2,2.776380479E-1,1.120173261E-1
1.786003917E0,7.941242307E-2,2.364046723E-1,1.231656075E-1
1.805467772E0,8.445205539E-2,1.514944583E-1,1.173623949E-1
1.824931522E0,6.979130208E-2,5.222893879E-2,8.895718306E-2
1.844395376E0,2.550360374E-2,-1.908952370E-2,3.718639165E-2
1.863859126E0,-4.276053607E-2,-1.786779426E-2,-8.933897130E-3
1.883322980E0,-1.197294965E-1,5.482511222E-2,-1.992946304E-2
1.902786730E0,-1.966984570E-1,1.243109852E-1,4.963276442E-3
1.922250584E0,-2.518289983E-1,1.374445707E-1,4.298960790E-2
1.941714438E0,-2.544251680E-1,1.024725661E-1,8.300124854E-2
1.961178188E0,-2.171624303E-1,2.153298259E-2,1.143080741E-1
1.980642042E0,-1.650862098E-1,-5.925388262E-2,1.260672212E-1
2.000105792E0,-1.330158114E-1,-9.544762224E-2,1.155297980E-1
2.019569647E0,-1.299614757E-1,-7.040216774E-2,8.987347782E-2
2.039033397E0,-1.646280587E-1,-1.664606482E-2,6.818778068E-2
2.058497251E0,-2.145662606E-1,9.621120058E-3,7.154753804E-2
2.077961001E0,-2.283107042E-1,-9.468403645E-3,7.154753804E-2
2.097424855E0,-1.994473487E-1,-5.619955808E-2,8.636100590E-2
2.116888709E0,-1.757763475E-1,-4.917461425E-2,9.903645515E-2
2.136352459E0,-1.406516135E-1,-1.359174121E-2,9.048434347E-2
2.155816313E0,-1.056796089E-1,-1.985310577E-2,7.857248187E-2
2.175280063E0,-7.910698652E-2,-1.282816008E-2,4.589121789E-2
2.194743917E0,-5.894844979E-2,9.926552884E-3,1.550069358E-2
2.214207667E0,-4.062250629E-2,3.894263133E-2,3.894262947E-3
2.233671522E0,-1.435532235E-2,4.718930274E-2,8.933897130E-3
2.253135272E0,2.504545636E-2,4.932733253E-2,3.046688065E-2
2.272599126E0,5.665770918E-2,5.528326333E-2,4.909825698E-2
2.292062876E0,6.902772188E-2,6.276635826E-2,4.314232618E-2
2.311526730E0,6.276635826E-2,7.192932814E-2,2.145662531E-2
2.330990584E0,4.718930274E-2,9.498947114E-2,5.726857111E-3
2.350454334E0,3.039052337E-2,1.162170246E-1,-3.817904799E-4
2.369918188E0,1.740964688E-2,1.116355360E-1,2.519817324E-3
2.389381938E0,9.621120058E-3,8.918625861E-2,1.443168055E-2
2.408845792E0,-2.290742937E-3,6.200277433E-2,2.023489587E-2
2.428309542E0,-2.031125315E-2,4.825831577E-2,2.038761228E-2
2.447773397E0,-3.802633286E-2,4.917461425E-2,1.779143699E-2
2.467237147E0,-4.489856213E-2,4.596757516E-2,1.870773360E-2
2.486701001E0,-3.833176568E-2,3.588830680E-2,3.229947388E-2
2.506164751E0,-3.130681813E-2,2.932151034E-2,4.802924395E-2
2.525628605E0,-3.115410358E-2,3.359756246E-2,5.383246019E-2
2.545092355E0,-3.985892609E-2,4.214967042E-2,5.352702737E-2
2.564556209E0,-5.711585656E-2,5.222893879E-2,5.108356848E-2
2.584019959E0,-8.170316368E-2,4.321868345E-2,4.711294547E-2
2.603483813E0,-1.059850380E-1,3.115410358E-2,4.802924395E-2
2.622947563E0,-1.133154184E-1,1.893680729E-2,4.818195850E-2
2.642411417E0,-9.086613357E-2,6.108647678E-3,5.215258151E-2
2.661875167E0,-5.803215504E-2,2.901607659E-3,5.871937796E-2
2.681339022E0,-3.863719851E-2,3.817904973E-3,5.520690605E-2
2.700802772E0,-3.604102135E-2,9.621120058E-3,4.146244749E-2
2.720266626E0,-3.833176568E-2,1.786779426E-2,3.413207084E-2
2.739730376E0,-3.054323979E-2,1.618791744E-2,3.917170316E-2
2.759194230E0,-9.315688163E-3,-3.817904973E-3,5.047270283E-2
2.778657980E0,1.252272818E-2,-6.261364091E-3,5.505418777E-2
2.798121834E0,3.100138716E-2,1.939495653E-2,5.016727000E-2
2.817585584E0,5.299251899E-2,3.573558852E-2,4.115701467E-2
2.837049438E0,7.589995116E-2,3.451386094E-2,2.955058403E-2
2.856513292E0,9.269873053E-2,2.229656465E-2,1.718057133E-2
2.875977042E0,9.544762224E-2,1.649334840E-2,7.406735327E-3
2.895440897E0,9.834922850E-2,2.779434808E-2,-2.519817324E-3
2.914904647E0,1.116355360E-1,4.612028971E-2,-1.183550525E-2
2.934368501E0,1.304196268E-1,7.238747925E-2,-3.061959706E-2
2.953832251E0,1.533270627E-1,8.384118974E-2,-4.925097153E-2
2.973296105E0,1.653916389E-1,7.635809481E-2,-5.734493211E-2
2.992759855E0,1.553123742E-1,8.048143238E-2,-6.803506613E-2
3.012223709E0,1.545487940E-1,8.491020650E-2,-8.345939964E-2
3.031687459E0,1.921169758E-1,8.475748450E-2,-9.002619982E-2
3.051151313E0,2.374736816E-1,1.058323234E-1,-8.361211419E-2
3.070615063E0,2.562577724E-1,1.233946830E-1,-7.292198390E-2
3.090078917E0,2.449567765E-1,1.276707351E-1,-6.849320978E-2
3.109542667E0,2.232710719E-1,1.262962967E-1,-7.200568914E-2
3.129006522E0,2.026543915E-1,1.166751757E-1,-8.468113095E-2
3.148470272E0,1.838703007E-1,1.020144150E-1,-9.124792367E-2
3.167934126E0,1.727220118E-1,9.056070447E-2,-7.780890167E-2
3.187397876E0,1.612683088E-1,8.277218044E-2,-4.512763396E-2
3.206861730E0,1.513417512E-1,8.475748450E-2,-1.137735695E-2
3.226325480E0,1.406516135E-1,8.567378670E-2,1.672242396E-2
3.245789334E0,1.227838174E-1,7.712167501E-2,4.375318810E-2
3.265253084E0,9.056070447E-2,7.437278330E-2,6.101011857E-2
3.284716938E0,5.009091273E-2,8.109229803E-2,7.948877662E-2
3.304180688E0,1.374445739E-3,9.376774728E-2,7.948877662E-2
3.323644542E0,-2.641990222E-2,9.926552325E-2,9.735657275E-2
3.343108292E0,-2.794706449E-2,1.224783882E-1,1.065195426E-1
3.362572147E0,-3.405570984E-2,1.038470119E-1,1.176678315E-1
3.382035897E0,-3.756818548E-2,1.070540547E-1,1.395062506E-1
3.401499751E0,-1.908952370E-2,1.279761642E-1,1.734092385E-1
3.420963501E0,-2.290742937E-3,1.464548260E-1,2.154061943E-1
3.440427355E0,2.611446939E-2,1.879936308E-1,2.282343507E-1
3.459891105E0,6.963858753E-2,2.310595959E-1,1.905134469E-1
3.479354959E0,1.004872546E-1,2.131918073E-1,1.358410567E-1
3.498818709E0,1.343902498E-1,1.715002805E-1,8.651372790E-2
3.518282563E0,1.725693047E-1,1.180496216E-1,4.451677203E-2
3.537746313E0,2.208276242E-1,5.955931544E-2,2.328922041E-2
3.557210167E0,2.710712552E-1,5.299251899E-2,7.712167688E-3
3.576673917E0,3.252854943E-1,7.864884287E-2,4.505127668E-3
3.596137772E0,3.767508566E-1,8.429934084E-2,1.397353224E-2
3.615601522E0,4.010327160E-1,7.116574794E-2,2.542724647E-2
3.635065376E0,3.860665262E-1,6.963858753E-2,3.657552972E-2
3.654529126E0,3.335321844E-1,5.467239767E-2,4.268417507E-2
3.673992980E0,2.745837271E-1,3.543015569E-2,2.283107117E-2
3.693456730E0,2.438877672E-1,2.489273995E-2,-1.244636998E-2
3.712920584E0,2.353356630E-1,2.244928107E-2,-4.192059487E-2
3.732384334E0,2.254091054E-1,3.817904973E-3,-5.810851231E-2
3.751848188E0,2.110537887E-1,-1.481347065E-2,-6.055197120E-2
3.771311938E0,2.025016695E-1,-1.756236330E-2,-5.123628303E-2
3.790775792E0,2.102901936E-1,-1.863137633E-2,-4.115701467E-2
3.810239542E0,2.429714650E-1,-2.015853859E-2,-4.069886729E-2
3.829703397E0,2.806923687E-1,-1.970038936E-2,-4.619665071E-2
3.849167147E0,2.984074354E-1,-1.970038936E-2,-5.306887627E-2
3.868631001E0,2.900080681E-1,-1.832594350E-2,-4.940368980E-2
3.888094751E0,2.629773021E-1,-1.252272818E-2,-5.123628303E-2
3.907558605E0,2.574795187E-1,-8.399390616E-3,-6.101011857E-2
3.927022355E0,2.846629918E-1,-5.345067009E-3,-6.925679743E-2
3.946486209E0,3.043633699E-1,-1.298087649E-2,-7.536543906E-2
3.965949959E0,3.020726442E-1,-4.413498193E-2,-8.040507883E-2
3.985413813E0,2.840521336E-1,-1.180496216E-1,-8.727730811E-2
4.004877563E0,2.622137070E-1,-2.118173689E-1,-9.078978002E-2
4.024341417E0,2.660316229E-1,-2.768744528E-1,-8.223766834E-2
4.043805167E0,3.110828996E-1,-3.197877109E-1,-5.138900131E-2
4.063269022E0,3.979783952E-1,-3.956876695E-1,-5.115992390E-3
4.082732772E0,4.864010811E-1,-4.778489769E-1,4.451677203E-2
4.102196626E0,5.465712547E-1,-5.117519498E-1,6.498073786E-2
4.121660376E0,5.707004070E-1,-5.261073112E-1,6.391172856E-2
4.141124230E0,5.427533388E-1,-5.606211424E-1,5.978839099E-2
4.160587980E0,4.876227975E-1,-6.055197120E-1,5.688678101E-2
4.180051834E0,4.466948807E-1,-6.149880886E-1,6.253728271E-2
4.199515584E0,4.056142271E-1,-5.769617558E-1,5.459604040E-2
4.218979334E0,3.546070158E-1,-5.054906011E-1,4.314232618E-2
4.238443188E0,3.010036349E-1,-4.431824088E-1,4.696023092E-2
4.257906938E0,2.464839369E-1,-4.579958618E-1,6.177370250E-2
4.277370792E0,1.800523996E-1,-5.332849622E-1,4.176788032E-2
4.296834542E0,1.340848207E-1,-5.801688433E-1,-1.183550525E-2
4.316298397E0,1.207985133E-1,-5.235111117E-1,-8.162680268E-2
4.335762147E0,1.191186309E-1,-3.639226854E-1,-1.326340139E-1
4.355226001E0,1.064431891E-1,-1.863137633E-1,-1.398116797E-1
4.374689751E0,8.857539296E-2,-5.864302069E-2,-1.210275814E-1
4.394153605E0,9.544762224E-2,5.513054505E-2,-1.155297980E-1
4.413617355E0,1.004872546E-1,1.572976857E-1,-1.379790753E-1
4.433081209E0,7.559451461E-2,2.072358727E-1,-1.665370166E-1
4.452544959E0,2.657261863E-2,2.086103261E-1,-1.918879002E-1
4.472008709E0,-1.863137633E-2,1.727220118E-1,-2.140317410E-1
4.491472563E0,-2.153298259E-2,1.207985133E-1,-2.134208828E-1
4.510936313E0,5.345067009E-3,8.139773458E-2,-1.802814752E-1
4.530400167E0,1.679878123E-2,7.635809481E-2,-1.259144992E-1
4.549863917E0,-1.099556591E-2,8.460476995E-2,-7.536543906E-2
4.569327772E0,-8.155044913E-2,7.696896046E-2,-4.741837829E-2
4.588791522E0,-1.707367003E-1,5.070177838E-2,-3.978256881E-2
4.608255376E0,-2.512181401E-1,1.618791744E-2,-4.283689335E-2
4.627719126E0,-3.065013885E-1,5.803215317E-3,-4.665479809E-2
4.647182876E0,-3.362810612E-1,5.207622424E-2,-3.642281145E-2
4.666646730E0,-3.382663727E-1,1.466075480E-1,-8.475748822E-3
4.686110480E0,-3.228420317E-1,2.223547846E-1,3.077231348E-2
4.705574334E0,-3.077231348E-1,2.368628234E-1,6.650790572E-2
4.725038084E0,-3.006981909E-1,1.922696829E-1,8.132137358E-2
4.744501938E0,-2.942841053E-1,1.220202371E-1,6.956222653E-2
4.763965688E0,-2.843575478E-1,7.055488229E-2,3.336848691E-2
4.783429542E0,-2.820668221E-1,5.604684353E-2,-1.519526169E-2
4.802893292E0,-2.916879356E-1,8.613193035E-2,-5.627591908E-2
4.822357147E0,-3.068068326E-1,1.527161896E-1,-7.292198390E-2
4.841820897E0,-2.941313982E-1,2.321286201E-1,-6.757691503E-2
4.861284647E0,-2.530507445E-1,3.013090491E-1,-4.344775900E-2
4.880748501E0,-2.118173689E-1,3.262017965E-1,-7.406735327E-3
4.900212251E0,-1.826485693E-1,2.838993967E-1,2.328922041E-2
4.919676105E0,-1.791360974E-1,1.983783394E-1,3.352120519E-2
4.939139855E0,-2.041815519E-1,1.191186309E-1,2.390008420E-2
4.958603709E0,-2.599229515E-1,9.330959618E-2,1.137735695E-2
4.978067459E0,-3.185659945E-1,9.437860548E-2,1.030834299E-2
4.997531313E0,-3.584249020E-1,9.346231073E-2,2.176205814E-2
5.016995063E0,-3.765981495E-1,6.536252797E-2,3.535379842E-2
5.036458813E0,-3.775144219E-1,1.893680729E-2,5.093085021E-2
5.055922667E0,-3.565923274E-1,3.359756200E-3,5.810851231E-2
5.075386417E0,-3.075704277E-1,1.343902480E-2,6.146826968E-2
5.094850272E0,-2.341139317E-1,2.443459118E-3,6.314814836E-2
5.114314022E0,-1.832594275E-1,-1.527161989E-2,6.864593178E-2
5.133777876E0,-1.831067204E-1,-2.580903657E-2,8.071050793E-2
5.153241626E0,-2.287688553E-1,-2.748891525E-2,9.170607477E-2
5.172705480E0,-2.834412456E-1,-3.588830680E-2,9.552398324E-2
5.192169230E0,-3.061959743E-1,-6.948586553E-2,8.956804872E-2
5.211633084E0,-2.922987938E-1,-1.201876476E-1,8.513928205E-2
5.231096834E0,-2.751945853E-1,-1.678351015E-1,8.544471115E-2
5.250560688E0,-2.832885385E-1,-1.747073233E-1,8.834631741E-2
5.270024438E0,-3.214675784E-1,-1.435532272E-1,9.384410083E-2
5.289488188E0,-3.732383847E-1,-1.061377525E-1,1.109483168E-1
5.308952042E0,-4.137081802E-1,-6.520981342E-2,1.395062506E-1
5.328415792E0,-4.059196413E-1,-8.246674202E-3,1.665370166E-1
5.347879647E0,-3.634645343E-1,2.244928107E-2,1.834885031E-1
5.367343397E0,-3.242164850E-1,1.374445762E-2,1.825722158E-1
5.386807251E0,-3.043633699E-1,-4.413498193E-2,1.668424457E-1
5.406271001E0,-3.026835024E-1,-1.307250559E-1,1.518762559E-1
5.425734855E0,-3.115410507E-1,-1.890626550E-1,1.416442692E-1
5.445198605E0,-3.303251266E-1,-1.913533956E-1,1.344666034E-1
5.464662459E0,-3.332267404E-1,-1.354592592E-1,1.136972085E-1
5.484126209E0,-3.142899275E-1,-4.321868345E-2,7.933606207E-2
5.503589959E0,-3.086394370E-1,4.825831577E-2,4.207331315E-2
5.523053813E0,-3.437641561E-1,1.182023361E-1,9.392046370E-3
5.542517563E0,-4.091266990E-1,1.484401375E-1,-2.649625950E-2
5.561981417E0,-4.752528071E-1,1.388190240E-1,-7.444914430E-2
5.581445167E0,-5.119046569E-1,9.972367436E-2,-1.327867359E-1
5.600909022E0,-5.076286197E-1,4.932733253E-2,-1.879172772E-1
5.620372772E0,-4.718930423E-1,6.414080039E-3,-2.271653414E-1
5.639836626E0,-4.164570570E-1,-5.971203372E-2,-2.367864549E-1
5.659300376E0,-3.439168632E-1,-1.623373181E-1,-2.227365673E-1
5.678764230E0,-2.838993967E-1,-2.900080681E-1,-1.848629564E-1
5.698227980E0,-2.211330533E-1,-3.411679864E-1,-1.326340139E-1
5.717691834E0,-1.641699076E-1,-3.113883138E-1,-6.940951198E-2
5.737155584E0,-1.531743407E-1,-3.184132576E-1,4.046979360E-3
5.756619438E0,-1.705839932E-1,-3.735437989E-1,5.749764666E-2
5.776083188E0,-1.689041108E-1,-4.086685479E-1,7.780890167E-2
5.795546938E0,-1.392771751E-1,-3.814850450E-1,8.101594448E-2
5.815010792E0,-1.072067693E-1,-3.165806830E-1,5.871937796E-2
5.834474542E0,-7.437278330E-2,-2.703076601E-1,2.084576152E-2
5.853938397E0,-2.962694131E-2,-2.916879356E-1,-1.870773360E-2
5.873402147E0,-1.725693047E-2,-3.533852696E-1,-4.940368980E-2
5.892866001E0,-4.963276163E-2,-3.842339516E-1,-6.330086291E-2
5.912329751E0,-1.096502244E-1,-3.368919194E-1,-5.703949928E-2
5.931793605E0,-1.362228394E-1,-1.928805560E-1,-2.909243479E-2
5.951257355E0,-8.429934084E-2,-3.390299529E-2,5.268708803E-3
5.970721209E0,7.635809598E-4,4.031707719E-2,2.939786762E-2
5.990184959E0,6.536252797E-2,5.024362728E-2,1.886045001E-2
6.009648709E0,9.132428467E-2,3.359756246E-2,-2.222020552E-2
6.029112563E0,8.613193035E-2,-1.221729536E-2,-8.086322248E-2
6.048576313E0,6.475166976E-2,-5.910116807E-2,-1.376736462E-1
6.068040167E0,3.420842811E-2,-8.124501258E-2,-1.680641770E-1
6.087503917E0,1.466075517E-2,-7.788526267E-2,-1.676060259E-1
6.106967772E0,4.673115537E-2,-3.039052337E-2,-1.477529258E-1
6.126431522E0,1.206457913E-1,4.428769648E-2,-1.338557452E-1
6.145895376E0,1.977674663E-1,1.281288862E-1,-1.245400533E-1
6.165359126E0,2.533561587E-1,1.849393100E-1,-1.088102907E-1
6.184822876E0,2.712239623E-1,1.773035079E-1,-8.987347782E-2
6.204286730E0,2.562577724E-1,1.389717311E-1,-6.834049523E-2
6.223750480E0,2.353356630E-1,9.804379940E-2,-3.688096255E-2
6.243214334E0,2.417497337E-1,6.673697382E-2,1.580612548E-2
6.262678084E0,2.631300092E-1,4.184423760E-2,8.422297984E-2
6.282141938E0,2.406807244E-1,1.802051067E-2,1.265253723E-1
6.301605688E0,1.643226296E-1,2.962694131E-2,1.245400533E-1
6.321069542E0,5.772672221E-2,9.269873053E-2,8.239039034E-2
6.340533292E0,-2.733619884E-2,1.817322671E-1,3.168861195E-2
6.359997042E0,-4.444041103E-2,2.544251680E-1,1.198822167E-2
6.379460897E0,-7.635809947E-3,2.958112657E-1,2.649625950E-2
6.398924647E0,4.474584386E-2,2.677114904E-1,6.330086291E-2
6.418388501E0,9.605848789E-2,2.156352699E-1,8.712458611E-2
6.437852251E0,1.464548260E-1,1.756236255E-1,9.369138628E-2
6.457316105E0,1.853974611E-1,1.493564397E-1,7.979421318E-2
6.476779855E0,1.776089370E-1,1.203403622E-1,4.665479809E-2
6.496243709E0,1.143844277E-1,8.643736690E-2,2.084576152E-2
6.515707459E0,1.328630932E-2,5.955931544E-2,3.130682046E-3
6.535171209E0,-7.559451461E-2,5.222893879E-2,-1.458439697E-2
6.554635063E0,-9.911280870E-2,2.962694131E-2,-1.992946304E-2
6.574098813E0,-5.833758786E-2,-2.535088919E-2,2.672533505E-3
6.593562667E0,-1.511890348E-2,-9.117157012E-2,3.489565104E-2
6.613026417E0,-6.108647678E-3,-1.379027218E-1,3.733910993E-2
6.632490272E0,-2.076940238E-2,-1.386663020E-1,3.130682046E-3
6.651954022E0,-3.619373962E-2,-1.139262840E-1,-3.016144782E-2
6.671417876E0,-3.924806044E-2,-1.153007299E-1,-3.123046272E-2
6.690881626E0,-2.138026804E-2,-1.453858167E-1,-7.559451740E-3
6.710345480E0,8.552107029E-3,-1.800523996E-1,2.527453005E-2
6.729809230E0,3.649916872E-2,-2.136499584E-1,5.459604040E-2
6.749272980E0,4.764745384E-2,-2.368628234E-1,6.635518372E-2
6.768736834E0,3.313941509E-2,-2.342666388E-1,5.215258151E-2
6.788200584E0,1.481347065E-2,-2.021962404E-1,3.184132650E-2
6.807664438E0,-4.428769462E-3,-1.805105358E-1,2.939786762E-2
6.827128188E0,-2.962694131E-2,-1.771507859E-1,4.222602770E-2
6.846592042E0,-2.748891525E-2,-1.488982886E-1,4.482220486E-2
6.866055792E0,-4.550942779E-2,-1.545487940E-1,4.634936526E-2
6.885519647E0,-3.390299529E-2,-1.754709035E-1,5.933023989E-2
6.904983397E0,-1.252272818E-2,-1.944077164E-1,6.391172856E-2
6.924447251E0,-8.246674202E-3,-2.273944169E-1,5.154171586E-2
6.943911001E0,-2.458730713E-2,-2.519817352E-1,4.085158184E-2
6.963374855E0,-6.322450191E-2,-2.365573794E-1,2.466366626E-2
6.982838605E0,-8.491020650E-2,-1.794415265E-1,1.450803829E-3
7.002302459E0,-8.628465235E-2,-1.540906429E-1,-7.712167688E-3
7.021766209E0,-5.818486959E-2,-1.507308781E-1,-3.283398226E-3
7.041229959E0,-1.084284950E-2,-1.499672979E-1,9.544761851E-3
7.060693813E0,2.611446939E-2,-1.514944583E-1,2.359465137E-2
7.080157563E0,4.810560122E-2,-1.516471803E-1,2.695440874E-2
7.099621417E0,5.910116807E-2,-1.404989064E-1,1.947131567E-2
7.119085167E0,6.475166976E-2,-1.032361463E-1,1.015562657E-2
7.138549022E0,6.490438432E-2,-5.329795182E-2,1.168278884E-2
7.158012772E0,5.451968312E-2,-4.703658819E-2,2.466366626E-2
7.177476626E0,3.497200832E-2,-7.681624591E-2,2.557996288E-2
7.196940376E0,2.397644334E-2,-1.006399691E-1,1.137735695E-2
7.216404230E0,3.466657549E-2,-1.177441850E-1,2.825249685E-3
7.235867980E0,4.001164436E-2,-1.426369250E-1,4.352411721E-3
7.255331834E0,2.290742844E-2,-1.473711282E-1,1.290451828E-2
7.274795584E0,-5.345067009E-3,-1.348484010E-1,2.649625950E-2
7.294259334E0,-2.519817278E-2,-1.090393662E-1,3.061959706E-2
7.313723188E0,-2.779434808E-2,-7.116574794E-2,2.267835476E-2
7.333186938E0,-2.061668597E-2,-4.856374860E-2,1.382081583E-2
7.352650792E0,-1.725693047E-2,-5.161807314E-2,4.505127668E-3
7.372114542E0,-1.496618707E-2,-6.551524997E-2,-4.352411721E-3
7.391578397E0,-8.399390616E-3,-8.231402934E-2,-3.588830587E-3
7.411042147E0,-1.985310577E-3,-9.896009415E-2,-1.908952487E-3
7.430506001E0,9.162971983E-4,-1.188132018E-1,-5.421424750E-3
7.449969751E0,1.145371422E-2,-1.385135949E-1,-1.488982886E-2
7.469433605E0,3.894263133E-2,-1.525634825E-1,-2.176205814E-2
7.488897355E0,7.849612087E-2,-1.517999023E-1,-1.840230078E-2
7.508361209E0,1.133154184E-1,-1.660024971E-1,-8.933897130E-3
7.527824959E0,1.317940801E-1,-2.173151523E-1,2.977965865E-3
7.547288813E0,1.357647032E-1,-2.981020212E-1,2.603811212E-2
7.566752563E0,1.270598769E-1,-3.943132162E-1,5.383246019E-2
7.586216417E0,1.172860414E-1,-4.390590489E-1,8.559742570E-2
7.605680167E0,1.072067693E-1,-4.011854529E-1,9.949459881E-2
7.625144022E0,9.896009415E-2,-3.371973634E-1,1.106428802E-1
7.644607772E0,9.896009415E-2,-2.912297845E-1,1.222493127E-1
7.664071626E0,1.172860414E-1,-3.164279461E-1,1.240819097E-1
7.683535376E0,1.459966749E-1,-4.181369543E-1,1.366046369E-1
7.702999126E0,1.459966749E-1,-4.306596816E-1,1.550832987E-1
7.722462980E0,7.757982612E-2,-2.437350452E-1,1.488219351E-1
7.741926730E0,-4.199695215E-2,5.146535859E-2,1.253036410E-1
7.761390584E0,-1.401934624E-1,2.269362658E-1,9.140064567E-2
7.780854334E0,-1.777616441E-1,7.727439702E-2,2.359465137E-2
7.800318188E0,-1.644753367E-1,-2.357937992E-1,-4.741837829E-2
7.819781938E0,-1.120936871E-1,-3.633118272E-1,-1.901316643E-2
7.839245792E0,-1.001818255E-1,-7.315105945E-2,9.353867173E-2
7.858709542E0,-1.244636998E-1,3.633118272E-1,1.501963735E-1
7.878173397E0,-1.153007299E-1,5.258018374E-1,1.017853469E-1
7.897637147E0,-7.467821985E-2,4.604393244E-1,1.947131567E-2
7.917101001E0,-5.192350596E-2,4.103484154E-1,-1.290451828E-2
7.936564751E0,-1.087339297E-1,3.181078434E-1,-4.199695308E-3
7.956028605E0,-1.182023361E-1,9.498947114E-2,9.239329956E-3
7.975492459E0,-8.704823442E-3,-5.818486959E-2,-3.352120519E-2
7.994956209E0,1.374445707E-1,7.284562290E-2,-3.382663801E-2
8.014420063E0,1.455385387E-1,4.743365049E-1,4.039343446E-2
8.033883813E0,-9.025526792E-2,8.665117025E-1,-6.009382382E-2
8.053347667E0,-2.736674249E-1,1.074969292E0,-1.616500914E-1
8.072811417E0,-2.722929716E-1,1.043204308E0,-1.459203213E-1
8.092275272E0,-1.939495653E-1,8.741474748E-1,-4.589121789E-2
8.111739022E0,-1.017089859E-1,7.631227970E-1,3.917170316E-2
8.131202876E0,-2.092211880E-2,8.503237963E-1,5.658135191E-2
8.150666626E0,9.330959618E-2,1.011592031E0,-2.214384731E-3
8.170130480E0,2.206749022E-1,1.136361241E0,-1.191949919E-1
8.189594230E0,2.825249732E-1,1.109025002E0,-1.918879002E-1
8.209057980E0,2.370155305E-1,9.659299254E-1,-2.012035847E-1
8.228521834E0,1.736383140E-1,7.351757884E-1,-1.726456583E-1
8.247985584E0,1.458439678E-1,4.152353406E-1,-1.207221523E-1
8.267449438E0,2.115119249E-1,4.718930274E-2,-8.926261961E-2
8.286913188E0,3.135263622E-1,-2.735147178E-1,-3.749182448E-2
8.306377042E0,3.878991306E-1,-5.438223481E-1,1.977674663E-2
8.325840792E0,3.770562708E-1,-7.525854111E-1,3.565923125E-2
8.345304647E0,4.007273018E-1,-8.857539296E-1,1.901316643E-2
8.364768397E0,3.924806118E-1,-9.947932959E-1,-4.604393244E-2
8.384232251E0,2.926042378E-1,-1.139720917E0,5.337430909E-2
8.403696001E0,1.295033395E-1,-1.398880363E0,2.213621289E-1
8.423159855E0,-9.850194305E-2,-1.977369308E0,3.814086914E-1
8.442623605E0,-6.632464528E-1,-3.436877966E0,2.027307451E-1
8.462087459E0,-6.979129910E-1,-2.511570454E0,-2.386190593E-1
8.481551209E0,4.373791814E-1,1.472031355E0,9.460768104E-2
8.501015063E0,2.154825479E-1,2.147647858E0,-1.550069358E-2
8.520478813E0,-4.485274553E-1,8.368847370E-1,-2.145662531E-2
8.539942563E0,-6.134609580E-1,6.429351866E-2,-1.901316643E-2
8.559406417E0,-2.703076601E-1,4.825831652E-1,-8.788817376E-2
8.578870167E0,1.111773923E-1,1.175456524E0,-7.093667239E-2
8.598334022E0,2.797760665E-1,1.787084937E0,-5.551233515E-2
8.617797772E0,3.845393658E-1,2.001345634E0,8.009964228E-2
8.637261626E0,4.031707644E-1,1.459508657E0,1.827249229E-1
8.656725376E0,3.824013472E-1,1.463631988E0,2.172387838E-1
8.676189230E0,4.659371078E-1,1.531590700E0,2.175442129E-1
8.695652980E0,3.280344009E-1,9.773836732E-1,9.048434347E-2
8.715116834E0,1.401934624E-1,1.412624866E-1,-9.850194678E-3
8.734580584E0,-2.397644334E-2,-3.947713673E-1,-2.924515121E-2
8.754044438E0,-1.420260668E-1,-7.469348907E-1,2.214384731E-3
8.773508188E0,-1.927278340E-1,-8.892664313E-1,3.779725730E-2
8.792972042E0,-2.275471240E-1,-8.512400985E-1,7.353284955E-2
8.812435792E0,-2.548833191E-1,-8.234457374E-1,1.211803034E-1
8.831899647E0,-2.898553312E-1,-7.689260244E-1,1.734092385E-1
8.851363397E0,-4.946477413E-1,-8.208495378E-1,9.048434347E-2
8.870827251E0,-4.903717041E-1,-1.268460751E0,-7.292198390E-2
8.890291001E0,-2.797760665E-1,-1.528689146E0,-5.245801434E-2
8.909754855E0,-1.867718995E-1,-1.994626164E0,1.229365356E-2
8.929218605E0,2.309068888E-1,-1.310152292E0,1.804341823E-1
8.948682459E0,2.562577724E-1,8.900299668E-1,1.013271958E-1
8.968146209E0,-3.098611534E-1,1.690415502E0,9.399681538E-2
8.987610063E0,-6.207913160E-1,1.393840671E0,-1.534797717E-2
9.007073813E0,-5.184714794E-1,1.047938585E0,-6.895136088E-2
9.026537667E0,-3.138317764E-1,9.802852273E-1,-1.168278884E-2
9.046001417E0,-2.168570012E-1,1.086270332E0,5.367974192E-2
9.065465272E0,-1.562286615E-1,1.182786942E0,8.559742570E-2
9.084929022E0,-4.352411628E-2,1.180190802E0,6.864593178E-2
9.104392876E0,-7.788525894E-3,1.156672478E0,3.741546767E-3
9.123856626E0,1.527161989E-2,9.503529072E-1,-8.055779338E-2
9.143320480E0,4.428769462E-3,6.870701313E-1,-1.294269711E-1
9.162784230E0,2.015853859E-2,1.389717311E-1,-8.529199660E-2
9.182248084E0,9.025526792E-2,-3.738492429E-1,-4.497491941E-2
9.201711834E0,2.008218020E-1,-7.974839807E-1,-3.443750367E-2
9.221175688E0,3.688096106E-1,-1.109941363E0,-1.000291109E-2
9.240639438E0,5.682569742E-1,-1.312443018E0,3.932442144E-2
9.260103292E0,6.406444311E-1,-1.314428329E0,6.971494108E-2
9.279567042E0,5.225948095E-1,-1.114675522E0,9.735657275E-2
9.299030897E0,2.745837271E-1,-1.100778341E0,1.317177117E-1
9.318494647E0,4.825831577E-2,-1.308014154E0,2.922224402E-1
9.337958397E0,-4.691441655E-1,-2.474460602E0,3.795761168E-1
9.357422251E0,-1.458134174E0,-2.737361431E0,-1.909715980E-1
9.376886105E0,-4.717403352E-1,1.860083193E-1,1.733328775E-2
9.396349855E0,-1.753181964E-1,1.960570455E0,-9.567669779E-2
9.415813709E0,-2.991710305E-1,1.643837094E0,-1.672242396E-2
9.435277459E0,-9.941824526E-2,7.747292519E-1,1.074358448E-1
9.454741313E0,1.084285006E-1,6.210967898E-1,1.222493127E-1
9.474205063E0,1.023198515E-1,7.125737667E-1,6.177370250E-2
9.493668917E0,9.010255337E-3,8.093958497E-1,3.749182448E-2
9.513132667E0,-6.856957078E-2,1.172249556E0,2.084576152E-2
9.532596522E0,-1.165224537E-1,1.463326573E0,2.344193682E-2
9.552060272E0,-2.554942071E-1,1.672242284E0,-6.330086291E-2
9.571524126E0,-3.397935331E-1,1.679572701E0,-1.393535286E-1
9.590987876E0,-1.421787739E-1,1.317788005E0,-9.582941234E-2
9.610451730E0,9.651663154E-2,5.531380773E-1,-1.167515293E-1
9.629915480E0,3.068068326E-1,-2.713766694E-1,-1.002581790E-1
9.649379334E0,4.065304995E-1,-8.243620396E-1,-1.147662178E-1
9.668843084E0,3.503309488E-1,-1.165529966E0,-8.941533417E-2
9.688306938E0,2.463312149E-1,-1.299309373E0,7.101302966E-3
9.707770688E0,5.299251899E-2,-1.385594010E0,7.918334752E-2
9.727234542E0,-7.437278330E-2,-1.564577460E0,3.092502989E-2
9.746698292E0,-1.676823795E-1,-2.131612539E0,-1.402698308E-1
9.766162147E0,-1.829539984E-1,-2.216828346E0,-1.350774765E-1
9.785625897E0,1.363755614E-1,-1.731038094E0,9.002619982E-2
9.805089751E0,5.421425104E-1,-2.944368124E-1,4.400517046E-1
9.824553501E0,3.356702030E-1,1.336572170E0,7.047852129E-2
9.844017355E0,-1.780670881E-1,9.714277387E-1,-8.956804872E-2
9.863481105E0,-3.029889166E-1,4.140135944E-1,-1.697440445E-1
9.882944959E0,-1.105665267E-1,6.275108457E-1,-1.462257504E-1
9.902408813E0,8.659008145E-2,1.152549148E0,-3.611737862E-2
9.921872563E0,1.372918636E-1,1.631619811E0,5.933023989E-2
9.941336417E0,2.275471389E-2,1.742491841E0,1.137735695E-2
9.960800167E0,-2.680169344E-1,1.356883407E0,-8.269581944E-2
9.980264022E0,-3.715584874E-1,1.352607369E0,-1.222493127E-1
9.999727772E0,-2.185368687E-1,1.084132314E0,-1.408806890E-1
1.001919163E1,2.061668597E-2,2.310595959E-1,-1.715766490E-1
1.003865538E1,2.736674249E-1,-6.456840634E-1,-1.685223281E-1
1.005811923E1,3.946186602E-1,-1.166599035E0,-7.506000996E-2
1.007758298E1,3.315468729E-1,-1.411555767E0,1.046105940E-2
1.009704683E1,1.536324918E-1,-1.641393661E0,2.367100911E-3
1.011651058E1,-3.252854943E-2,-1.740200996E0,-7.612902671E-2
1.013597444E1,-3.558287323E-1,-1.390786409E0,-1.779907197E-1
1.015543819E1,-5.499309897E-1,-1.141858935E0,-2.824485898E-1
1.017490204E1,-3.101665974E-1,-1.268918872E0,-1.840993762E-1
1.019436579E1,4.230238497E-2,-2.045175314E0,1.066722646E-1
1.021382965E1,4.062250853E-1,-1.616653681E0,1.923460513E-1
1.023329340E1,2.693913579E-1,4.254673123E-1,4.634936526E-2
1.025275725E1,-4.679224193E-1,1.110399485E0,4.176788032E-2
1.027222100E1,-7.171552777E-1,9.272927642E-1,1.011744812E-1
1.029168486E1,-4.515817761E-1,7.234166265E-1,1.133917719E-1
1.031114861E1,-1.324049383E-1,7.655662894E-1,1.352301836E-1
1.033061246E1,1.742491722E-1,9.625701904E-1,1.521816850E-1
1.035007631E1,3.630063832E-1,1.198822141E0,1.236237586E-1
1.036954006E1,4.243983030E-1,1.346804142E0,1.454621702E-1
1.038900392E1,3.497200906E-1,9.605848789E-1,1.795178801E-1
1.040846767E1,1.206457913E-1,6.733257174E-1,1.326340139E-1
1.042793152E1,-3.741546720E-2,8.629992008E-1,1.152243689E-1
1.044739527E1,-2.977965772E-2,5.748237371E-1,1.392008066E-1
1.046685913E1,-3.634645417E-2,-5.864302069E-2,1.036179364E-1
1.048632288E1,-4.123337101E-3,-5.085449219E-1,4.329504073E-2
1.050578673E1,4.612028971E-2,-8.408553600E-1,-1.450803829E-3
1.052525048E1,6.093376130E-2,-1.137430191E0,-6.185005885E-3
1.054471433E1,-1.695149764E-2,-1.309235930E0,-1.748600416E-2
1.056417808E1,-1.209512278E-1,-1.158657789E0,3.588830587E-3
1.058364194E1,-9.453132749E-2,-9.724967480E-1,6.009382382E-2
1.060310579E1,-1.731801629E-1,-1.220813274E0,5.474875495E-2
1.062256954E1,-3.552178741E-1,-1.273500323E0,4.696023092E-2
1.064203340E1,-3.636172712E-1,-1.130710721E0,2.105192691E-1
1.066149715E1,2.203694731E-1,-3.136790693E-1,1.905134469E-1
1.068096100E1,6.064360142E-1,9.792162180E-1,1.051450968E-1
1.070042475E1,7.486147881E-1,1.063973784E0,1.381317973E-1
1.071988861E1,6.800451875E-1,6.217076182E-1,2.115119249E-2
1.073935246E1,4.254673123E-1,5.100721121E-1,-9.735657275E-2
1.075881621E1,8.918625861E-2,7.192932963E-1,-1.385899484E-1
1.077828006E1,-2.134972364E-1,1.052672744E0,-1.653152853E-1
1.079774381E1,-3.762927055E-1,1.356425285E0,-1.450040340E-1
1.081720767E1,-2.858847082E-1,1.419802427E0,-1.152243689E-1
1.083667142E1,-1.725693047E-2,1.267086267E0,-7.414371520E-2
1.085613527E1,2.066250145E-1,1.149647474E0,-1.407279670E-1
1.087559902E1,3.121519089E-1,9.540180564E-1,-1.889862865E-1
1.089506288E1,2.693913579E-1,5.183187723E-1,-1.042288020E-1
1.091452663E1,2.825249732E-1,-6.734783947E-2,1.672242396E-2
1.093399048E1,3.599520624E-1,-5.335903764E-1,1.054505333E-1
1.095345423E1,3.301724195E-1,-7.093667388E-1,5.520690605E-2
1.097291808E1,2.918406427E-1,-8.753692508E-1,-1.550069358E-2
1.099238194E1,4.079049528E-1,-9.442442060E-1,-5.459604040E-2
1.101184569E1,4.202749729E-1,-1.033735871E0,-1.480583549E-1
1.103130954E1,4.598284662E-1,-8.891136646E-1,-1.137735695E-2
1.105077329E1,5.522217751E-1,-9.372192621E-1,3.581958413E-1
1.107023715E1,4.216494262E-1,-1.464548349E0,3.081049323E-1
1.108970090E1,-6.317868829E-1,-2.566853762E0,1.960112303E-1
1.110916475E1,-5.936078429E-1,-1.187368393E0,1.932623386E-1
1.112862850E1,-5.508472919E-1,1.762192130E0,-1.978438348E-1
1.114809236E1,-4.744892120E-1,1.791513681E0,-9.873101860E-2
1.116755621E1,-6.169734150E-2,7.670934200E-1,-6.223184988E-2
1.118701996E1,3.336848915E-1,2.550360374E-2,5.459604040E-2
1.120648381E1,1.621845961E-1,1.266017258E-1,-1.122464053E-2
1.122594756E1,-1.907425225E-1,7.318159938E-1,-1.786015928E-1
1.124541142E1,-2.800815105E-1,1.290757298E0,-1.952476501E-1
1.126487517E1,-5.054906011E-2,1.767537236E0,-1.023962051E-1
1.128433902E1,3.872882724E-1,1.698204041E0,-9.086613543E-3
1.130380288E1,7.806851864E-1,1.218980670E0,-5.215258151E-2
1.132326663E1,7.247910500E-1,1.210734010E0,-1.387426704E-1
1.134273048E1,5.520690680E-1,1.100931048E0,-1.451567411E-1
1.136219423E1,4.715875983E-1,4.905244112E-1,-1.140026376E-1
1.138165808E1,4.205803871E-1,-2.399171442E-1,-9.506583214E-2
1.140112183E1,2.649625838E-1,-7.843503952E-1,-6.604975462E-2
1.142058569E1,3.436114267E-2,-1.172096848E0,-6.131555140E-2
1.144004944E1,-2.015853822E-1,-1.388342977E0,-9.017891437E-2
1.145951329E1,-4.450149834E-1,-1.489135623E0,-9.086613543E-3
1.147897715E1,-4.459312856E-1,-1.574809432E0,1.895971596E-1
1.149844090E1,-3.384190798E-1,-1.708741546E0,7.429642975E-2
1.151790475E1,-2.257145345E-1,-1.973398685E0,4.268417507E-2
1.153736850E1,1.904370934E-1,-2.016770124E0,2.691622972E-1
1.155683236E1,8.087849617E-1,-1.644295216E0,5.390118361E-1
1.157629621E1,6.012436748E-1,4.221075773E-1,1.228601784E-1
1.159575996E1,-2.562577724E-1,1.123227596E0,9.392046370E-3
1.161522381E1,-6.696605086E-1,8.509346247E-1,1.468366235E-1
1.163468756E1,-6.178897023E-1,6.085740328E-1,1.753945500E-1
1.165415142E1,-4.421133697E-1,4.780016840E-1,2.625955045E-1
1.167361527E1,-2.880227566E-1,5.655080676E-1,3.317759335E-1
1.169307902E1,-2.293797284E-1,7.319687009E-1,3.077994883E-1
1.171254288E1,-3.620901108E-1,7.441860437E-1,1.508072466E-1
1.173200663E1,-5.438223481E-1,8.639155030E-1,-7.406735327E-3
1.175147048E1,-5.294670463E-1,1.206610680E0,-1.285106838E-1
1.177093433E1,-3.782780170E-1,1.167057157E0,-1.761581302E-1
1.179039808E1,-2.402225733E-1,5.354229808E-1,-2.091448307E-1
1.180986194E1,-7.757982612E-2,-1.760817766E-1,-1.749363989E-1
1.182932569E1,-1.191186346E-2,-8.147408962E-1,-1.063668281E-1
1.184878954E1,-3.924806044E-2,-1.136666656E0,-6.925679743E-2
1.186825340E1,-1.046105921E-1,-1.248760343E0,-6.024653837E-2
1.188771715E1,-1.403461844E-1,-1.267086267E0,-1.159879491E-1
1.190718100E1,-1.924224049E-1,-1.106428862E0,-1.256090701E-1
1.192664475E1,-2.663370371E-1,-1.073900223E0,-1.112537459E-1
1.194610861E1,-6.747001410E-1,-1.995389819E0,-1.396589577E-1
1.196557246E1,-8.374956250E-1,-3.000109673E0,-9.239329956E-3
1.198503621E1,-6.765327603E-2,2.159406990E-1,2.132681608E-1
1.200450006E1,-1.522580534E-1,1.839466572E0,1.329394430E-1
1.202396381E1,-3.489564955E-1,1.499214888E0,1.749363989E-1
1.204342767E1,-1.629481763E-1,7.215840220E-1,2.644280791E-1
1.206289152E1,8.857539296E-2,5.758927464E-1,2.326631248E-1
1.208235527E1,2.548833191E-1,7.327322960E-1,1.766162813E-1
1.210181913E1,2.542724609E-1,8.970549107E-1,1.443931609E-1
1.212128288E1,1.553123742E-1,9.605848789E-1,1.544724256E-1
1.214074673E1,9.315688163E-3,9.011782408E-1,1.643989831E-1
1.216021058E1,-2.208276242E-1,1.151938200E0,1.208748668E-1
1.217967433E1,-2.570213675E-1,1.050382018E0,7.047852129E-2
1.219913819E1,-1.933387071E-1,4.935787320E-1,-9.086613543E-3
1.221860194E1,-8.139773458E-2,-1.675296724E-1,-3.443750367E-2
1.223806579E1,1.282816008E-2,-6.388118267E-1,-4.940368980E-2
1.225752965E1,1.939495653E-2,-9.782999158E-1,-6.039925665E-2
1.227699340E1,-7.131846249E-2,-1.070540547E0,-1.188895553E-1
1.229645725E1,-2.035706937E-1,-7.261655331E-1,-1.650098413E-1
1.231592100E1,-3.451386094E-1,-1.185077667E0,-4.283689335E-2
1.233538486E1,-4.682278633E-1,-1.657428861E0,1.091920771E-2
1.235484871E1,-6.446150541E-1,-1.490815520E0,2.848157100E-2
1.237431246E1,-6.861538887E-1,-1.718515396E0,1.822667718E-1
1.239377631E1,-3.512472380E-3,2.774853408E-1,-6.956222653E-2
1.241324017E1,9.850194305E-2,1.921627879E0,-1.492800862E-1
1.243270392E1,3.440696001E-1,1.355050802E0,1.395062506E-1
1.245216777E1,4.931205809E-1,5.531380773E-1,2.584721744E-1
1.247163163E1,2.936732471E-1,5.760455132E-1,9.292780608E-2
1.249109538E1,7.635809947E-3,9.482148290E-1,-1.061377581E-2
1.251055923E1,-1.478292793E-1,1.344666123E0,-3.642281145E-2
1.253002298E1,-1.525634825E-1,1.676060200E0,-4.772381112E-2
1.254948683E1,3.405570984E-2,1.744629860E0,-8.452841640E-2
1.256895069E1,2.212857604E-1,1.441793561E0,-1.193477064E-1
1.258841444E1,2.962694168E-1,1.133764982E0,-1.746309698E-1
1.260787829E1,2.571740746E-1,9.666935205E-1,-1.359937787E-1
1.262734204E1,1.380554438E-1,4.926624298E-1,-7.933606207E-2
1.264680590E1,1.855501831E-1,-2.394589931E-1,-1.901316643E-2
1.266626975E1,3.700313270E-1,-6.354520917E-1,3.184132650E-2
1.268573350E1,4.938841760E-1,-8.897245526E-1,3.741546767E-3
1.270519736E1,5.502364635E-1,-1.176831007E0,-5.047270283E-2
1.272466111E1,5.525271893E-1,-1.217148066E0,-9.888373315E-2
1.274412496E1,3.940077722E-1,-1.237001181E0,-5.322159454E-2
1.276358881E1,9.025526792E-2,-1.106581569E0,5.459604040E-2
1.278305256E1,-1.122464016E-1,-1.209512234E0,2.209039778E-1
1.280251642E1,-5.904008150E-1,-1.731954336E0,2.538906634E-1
1.282198017E1,-1.965610147E0,-2.868010044E0,-1.593593508E-1
1.284144402E1,-1.103832603E0,-1.451261997E0,-6.307942271E-1
1.286090788E1,-1.278234571E-1,1.439808249E0,1.323285848E-1
1.288037163E1,-1.262962967E-1,2.356868982E0,1.433241516E-1
1.289983548E1,-8.521563560E-2,1.208137870E0,2.039524764E-1
1.291929933E1,1.974620372E-1,5.558869243E-1,3.291797638E-1
1.293876308E1,2.501491308E-1,8.110756874E-1,2.958876193E-1
1.295822694E1,9.850194305E-2,1.175456524E0,1.251509190E-1
1.297769079E1,7.635809481E-2,1.460730433E0,5.169443041E-2
1.299715454E1,1.719584316E-1,1.506392598E0,4.909825698E-2
1.301661840E1,3.281871080E-1,9.607375860E-1,8.300124854E-2
1.303608215E1,3.782780170E-1,1.141095400E0,6.032289471E-3
1.305554600E1,3.625482321E-1,1.251051068E0,-3.275762498E-2
1.307500986E1,3.961458206E-1,7.625119686E-1,-8.628465235E-3
1.309447361E1,3.875937164E-1,-1.084284950E-2,9.850194678E-3
1.311393746E1,3.289506733E-1,-6.149880886E-1,3.764454275E-2
1.313340131E1,2.293797284E-1,-1.053436279E0,4.451677203E-2
1.315286506E1,1.455385387E-1,-1.278387308E0,1.305723470E-2
1.317232892E1,7.651081681E-2,-1.406210780E0,-3.352120519E-2
1.319179267E1,3.711003438E-2,-1.402698278E0,-1.336266659E-2
1.321125652E1,5.009091273E-2,-1.244789720E0,6.330086291E-2
1.323072038E1,9.285144508E-2,-1.039233685E0,1.747836918E-1
1.325018413E1,-1.049160287E-1,-1.863901138E0,1.100320220E-1
1.326964798E1,-1.256854236E-1,-2.709796190E0,6.345357746E-2
1.328911183E1,4.526508152E-1,-5.364919901E-1,2.795470059E-1
1.330857558E1,1.777616441E-1,1.786321282E0,-3.224602342E-1
1.332803944E1,-3.665188700E-2,1.240513682E0,-2.603047490E-1
1.334750329E1,1.078176349E-1,4.263836145E-1,-1.700494885E-1
1.336696704E1,2.486219704E-1,4.286743701E-1,-7.170025259E-2
1.338643090E1,2.107483447E-1,6.462949514E-1,1.336266659E-2
1.340589475E1,4.367683083E-2,9.445496798E-1,4.192059487E-2
1.342535850E1,-1.640172005E-1,1.243109822E0,-2.214384731E-3
1.344482236E1,-2.689332068E-1,1.289840937E0,-3.642281145E-2
1.346428621E1,-2.446513474E-1,1.231808782E0,-6.360629201E-2
1.348374996E1,-9.941824526E-2,1.046105981E0,-1.120173261E-1
1.350321381E1,-4.520399496E-2,6.569850445E-1,-7.704532146E-2
1.352267756E1,-4.688387364E-2,4.001164436E-2,-2.084576152E-2
1.354214142E1,1.278234571E-1,-5.621483326E-1,-1.259908639E-2
1.356160527E1,2.884808779E-1,-8.772017956E-1,-2.390008420E-2
1.358106902E1,3.819431961E-1,-9.822705388E-1,-2.787070535E-2
1.360053288E1,3.920224607E-1,-1.053130865E0,-1.422551423E-1
1.361999673E1,3.946186602E-1,-1.046716809E0,-2.070067972E-1
1.363946048E1,4.390590489E-1,-8.413135409E-1,-2.786307037E-1
1.365892433E1,3.892735839E-1,-6.333140731E-1,-3.346775472E-1
1.367838819E1,3.959930837E-1,-8.741474748E-1,-2.575558722E-1
1.369785194E1,-4.062250629E-2,-1.789833784E0,-1.854738146E-1
1.371731579E1,-7.557924390E-1,-2.773173332E0,1.489746422E-1
1.373677965E1,-3.164279461E-1,-1.143844277E-1,6.177370250E-2
1.375624340E1,-6.714931130E-1,1.628260016E0,1.001054645E-1
1.377570725E1,-7.727439404E-1,1.511126757E0,2.415206581E-1
1.379517111E1,-4.691441655E-1,5.881100893E-1,3.801869750E-1
1.381463486E1,-2.641990185E-1,4.161516428E-1,3.823249936E-1
1.383409871E1,-1.572976857E-1,7.043271065E-1,3.255145550E-1
1.385356256E1,-4.581485991E-4,1.087950230E0,2.551124096E-1
1.387302631E1,1.913533956E-1,1.449123979E0,1.653152853E-1
1.389249017E1,3.139844835E-1,1.554498196E0,1.476002038E-1
1.391195402E1,2.874118686E-1,1.058323264E0,1.309541315E-1
1.393141777E1,-1.725693047E-2,8.571959734E-1,2.367100911E-3
1.395088163E1,-2.848156989E-1,6.551524997E-1,-3.504836559E-2
1.397034548E1,-2.858847082E-1,2.275471240E-1,2.435823344E-2
1.398980923E1,-2.008218020E-1,-2.878700197E-1,-1.908952487E-3
1.400927308E1,-7.513637096E-2,-7.412844300E-1,-2.214384731E-3
1.402873694E1,1.237001177E-2,-1.133917689E0,-2.710712515E-2
1.404820069E1,2.748891525E-2,-1.368184447E0,-1.430187225E-1
1.406766454E1,-1.250745654E-1,-1.886808634E0,-6.284271181E-2
1.408712840E1,-1.626427472E-1,-2.818530083E0,1.727983803E-1
1.410659215E1,-3.045161068E-1,-2.890612125E0,1.304959953E-1
1.412605600E1,-5.668824911E-1,-3.096931696E0,-6.788235158E-2
1.414551986E1,2.388481349E-1,-1.415679097E0,1.156825200E-1
1.416498361E1,4.086685479E-1,1.959196091E0,1.308014244E-1
1.418444746E1,5.039634649E-3,1.882685304E0,1.501963735E-1
1.420391131E1,1.817322709E-2,1.133459568E0,5.383246019E-2
1.422337517E1,4.773908257E-1,6.290380359E-1,5.413788930E-2
1.424283892E1,5.653553605E-1,6.020072699E-1,-2.084576152E-2
1.426230277E1,3.330740333E-1,8.622356653E-1,-3.092502989E-2
1.428176663E1,-1.435532235E-2,1.081536055E0,4.069886729E-2
1.430123038E1,-2.652680278E-1,1.005330682E0,5.902481079E-2
1.432069423E1,-3.996582925E-1,9.720385671E-1,1.809686981E-2
1.434015808E1,-4.679224193E-1,1.045342326E0,-1.199585721E-1
1.435962183E1,-3.967566788E-1,7.768672705E-1,-2.062432170E-1
1.437908569E1,-1.757763475E-1,-9.010255337E-3,-2.751182318E-1
1.439854954E1,9.361502528E-2,-4.566214085E-1,-3.386481702E-1
1.441801329E1,3.174969554E-1,-5.794052482E-1,-3.140608668E-1
1.443747715E1,4.509709179E-1,-7.545707226E-1,-2.858083546E-1
1.445694100E1,4.836521745E-1,-8.729257584E-1,-2.711476088E-1
1.447640475E1,4.873173833E-1,-9.404263496E-1,-2.028834671E-1
1.449586860E1,4.389063418E-1,-8.190169334E-1,-5.016727000E-2
1.451533246E1,5.184714794E-1,-6.863065958E-1,1.671478748E-1
1.453479621E1,3.032943606E-1,-6.901245117E-1,3.310123384E-1
1.455426006E1,-8.440623879E-1,-2.003178358E0,1.289688200E-1
1.457372392E1,-1.996000648E0,-3.660149097E0,-6.321687102E-1
1.459318777E1,-2.736674249E-1,-1.077565432E0,-4.252382517E-1
1.461265152E1,1.780670881E-1,2.235154152E0,1.947131567E-2
1.463211538E1,-3.202458620E-1,2.572809696E0,2.237292193E-2
1.465157923E1,-5.079340935E-1,1.395520568E0,4.512763396E-2
1.467104298E1,-4.818195999E-1,7.301361561E-1,5.994110554E-2
1.469050683E1,-4.286743701E-1,7.467821836E-1,6.406444311E-2
1.470997069E1,-2.180787325E-1,8.820887208E-1,9.033162892E-2
1.472943444E1,1.195767820E-1,9.428697824E-1,1.306487024E-1
1.474889829E1,4.211912751E-1,8.057306409E-1,1.532506943E-1
1.476836215E1,3.605629504E-1,6.560688019E-1,7.307469845E-2
1.478782600E1,7.208204269E-2,8.851430416E-1,-2.832885459E-2
1.480728975E1,-2.489273995E-2,7.831286192E-1,-6.009382382E-2
1.482675360E1,4.795288667E-2,1.980729103E-1,-1.809686981E-2
1.484621746E1,2.154825479E-1,-2.755000293E-1,4.436405376E-2
1.486568121E1,3.329212964E-1,-6.314814687E-1,6.375901401E-2
1.488514506E1,3.478874862E-1,-8.248201609E-1,3.397935256E-2
1.490460892E1,2.878700197E-1,-8.333722949E-1,-5.184714869E-2
1.492407267E1,2.284634262E-1,-7.278453708E-1,-1.042288020E-1
1.494353652E1,1.931859851E-1,-5.128209591E-1,-1.396589577E-1
1.496300038E1,9.086613357E-2,-3.297142684E-1,-8.681915700E-2
1.498246413E1,9.529490769E-2,-2.918406427E-1,9.567669779E-2
1.500192798E1,1.345429718E-1,-1.393840671E0,2.940550447E-1
1.502139183E1,1.420260668E-1,-2.943986416E0,5.151880980E-1
1.504085569E1,5.529853702E-1,-1.277318239E0,4.762454629E-1
1.506031944E1,3.698786199E-1,1.249829292E0,-1.020907760E-1
1.507978329E1,4.138609022E-2,1.786473989E0,-5.383246019E-2
1.509924715E1,8.704823256E-2,1.128878117E0,1.401171088E-1
1.511871100E1,1.524107605E-1,5.783362389E-1,2.532798052E-1
1.513817475E1,1.844811589E-1,5.590940118E-1,2.795470059E-1
1.515763860E1,8.246674389E-2,7.916807532E-1,1.914297491E-1
1.517710246E1,-1.631008983E-1,1.143997073E0,7.857248187E-2
1.519656621E1,-3.121519089E-1,1.354134440E0,-4.405862093E-2
1.521603006E1,-2.382372618E-1,1.247996688E0,-1.132390574E-1
1.523549392E1,-1.840230078E-1,1.070998669E0,-1.465311944E-1
1.525495777E1,-2.466366589E-1,9.126319885E-1,-1.515708268E-1
1.527442152E1,-2.335030586E-1,3.153589368E-1,-2.771798894E-2
1.529388538E1,-2.214384824E-2,-3.400989771E-1,3.199404106E-2
1.531334923E1,2.333503515E-1,-7.690787315E-1,5.444332212E-2
1.533281298E1,3.762927055E-1,-1.072831273E0,1.779143699E-2
1.535227683E1,4.663952589E-1,-1.315497279E0,-3.596466407E-2
1.537174069E1,5.403099060E-1,-1.507766962E0,-1.217911690E-1
1.539120444E1,4.572322965E-1,-1.353829026E0,-2.028834671E-1
1.541066829E1,3.252854943E-1,-1.140026450E0,-2.317468226E-1
1.543013215E1,2.649625838E-1,-1.165224552E0,-1.132390574E-1
1.544959600E1,-3.749182522E-1,-2.078620195E0,-2.023489587E-2
1.546905975E1,-8.211549520E-1,-3.065395832E0,1.552360058E-1
1.548852361E1,-1.502727419E-1,6.591231227E-1,2.038761228E-2
1.550798746E1,-5.445859432E-1,2.668410063E0,1.680641770E-1
1.552745131E1,-7.177661061E-1,1.852141976E0,2.387717664E-1
1.554691506E1,-4.631882310E-1,8.785762787E-1,2.396880686E-1
1.556637892E1,-1.693622619E-1,9.518800378E-1,1.850156635E-1
1.558584277E1,1.018617004E-1,1.142622590E0,1.446985900E-1
1.560530652E1,3.188714087E-1,1.233183265E0,9.918916970E-2
1.562477038E1,4.164570570E-1,1.185230374E0,7.750347257E-2
1.564423423E1,3.491092324E-1,1.034346819E0,1.120173261E-1
1.566369808E1,8.674279600E-2,1.000443816E0,4.176788032E-2
1.568316183E1,-2.079994529E-1,1.034804940E0,-1.384372264E-1
1.570262569E1,-3.509418070E-1,6.017017961E-1,-2.033416182E-1
1.572208954E1,-2.715294063E-1,-2.142608166E-1,-1.491273642E-1
1.574155340E1,-1.172860414E-1,-7.000510097E-1,-6.238456443E-2
1.576101715E1,-4.214967042E-2,-9.880737662E-1,6.574432552E-2
1.578048100E1,-2.733619884E-2,-1.175151110E0,1.844048053E-1
1.579994486E1,-3.207040019E-3,-1.359021425E0,2.749654949E-1
1.581940861E1,1.039997265E-1,-1.650403976E0,3.273471594E-1
1.583887246E1,8.842267841E-2,-1.933081627E0,3.382663801E-2
1.585833631E1,-3.547597229E-1,-2.031888962E0,6.574432552E-2
1.587780017E1,-7.695369124E-1,-1.975842118E0,-3.971384764E-1
1.589726392E1,2.550360374E-2,-1.556025267E0,3.151298761E-1
1.591672777E1,8.028290272E-1,1.117118955E0,2.803105712E-1
1.593619163E1,4.529562294E-1,1.809839606E0,1.094211563E-1
1.595565548E1,-1.154534444E-1,1.089782715E0,1.149189398E-1
1.597511923E1,-3.776671588E-1,8.151990771E-1,6.620246917E-2
1.599458308E1,-4.621191919E-1,9.654718041E-1,1.156825200E-1
1.601404694E1,-4.483747482E-1,1.272736788E0,1.958585232E-1
1.603351079E1,-3.646862805E-1,1.554039955E0,2.083812505E-1
1.605297454E1,-1.343902498E-1,1.536630392E0,9.781472385E-2
1.607243840E1,2.498437017E-1,1.335961223E0,-2.313650399E-2
1.609190225E1,5.789470673E-1,1.265100956E0,-1.584430486E-1
1.611136611E1,7.049379349E-1,9.511164427E-1,-3.165042996E-1
1.613082986E1,5.270236135E-1,4.851793647E-1,-3.300960660E-1
1.615029371E1,3.990474045E-1,-1.747073233E-1,-2.503781915E-1
1.616975756E1,4.393644929E-1,-4.566214085E-1,-2.004400045E-1
1.618922142E1,4.973966479E-1,-6.311760545E-1,-1.596647799E-1
1.620868517E1,4.958694875E-1,-6.974548697E-1,-2.056323588E-1
1.622814902E1,5.563451052E-1,-6.904299259E-1,-2.742019296E-1
1.624761288E1,6.998983026E-1,-6.009382010E-1,-2.108247131E-1
1.626707663E1,6.638572812E-1,-4.909825623E-1,-5.856665969E-2
1.628654048E1,4.708240330E-1,-6.154462695E-1,1.210275814E-1
1.630600433E1,6.795870513E-2,-1.033277750E0,2.305250913E-1
1.632546819E1,-8.594867587E-1,-2.013868570E0,-3.031416424E-2
1.634493194E1,-1.886350393E0,-2.922224283E0,-8.375719786E-1
1.636439579E1,-7.767145634E-1,-1.932470679E0,4.986183718E-2
1.638385965E1,-1.931859851E-1,1.926209331E0,3.369682729E-1
1.640332350E1,-5.554288030E-1,2.421926022E0,3.982074857E-1
1.642278725E1,-3.570504785E-1,1.181412458E0,2.572504282E-1
1.644225110E1,-1.495091617E-1,3.011563420E-1,2.149480432E-1
1.646171496E1,-1.065959036E-1,3.982838392E-1,1.433241516E-1
1.648117881E1,1.374445739E-3,6.337721944E-1,2.338848561E-1
1.650064267E1,2.167042792E-1,8.878919482E-1,2.906952798E-1
1.652010642E1,4.526508152E-1,9.668462276E-1,3.496437371E-1
1.653957027E1,4.059196413E-1,1.155908823E0,2.022725940E-1
1.655903413E1,7.116574794E-2,1.231503367E0,-4.810560029E-3
1.657849798E1,-3.648389876E-1,1.126740098E0,-1.417969912E-1
1.659796173E1,-4.836521745E-1,6.171261668E-1,-1.476002038E-1
1.661742558E1,-1.296560466E-1,-1.191186346E-2,1.603520010E-3
1.663688944E1,2.849684060E-1,-6.554579139E-1,1.471420527E-1
1.665635329E1,5.054906011E-1,-1.106886983E0,2.077703774E-1
1.667581704E1,5.453495383E-1,-1.348025799E0,1.448513120E-1
1.669528090E1,4.404335022E-1,-1.413999200E0,2.252563834E-2
1.671474475E1,1.689041108E-1,-1.286481261E0,-3.306305781E-2
1.673420861E1,-2.275471240E-1,-1.147204041E0,7.673988491E-2
1.675367236E1,-5.563451052E-1,-1.363450170E0,1.473711245E-2
1.677313621E1,-1.123838425E0,-2.410625219E0,-2.467130125E-1
1.679260006E1,-4.717403352E-1,-2.745378971E0,3.090212345E-1
1.681206392E1,7.101303339E-1,9.312633276E-1,3.481165767E-1
1.683152777E1,5.699368119E-1,2.292422771E0,5.566505343E-2
1.685099152E1,6.383536756E-2,1.356425285E0,6.177370250E-2
1.687045538E1,-1.730274558E-1,9.746347666E-1,7.551816106E-2
1.688991923E1,-2.554942071E-1,1.024878383E0,1.088102907E-1
1.690938308E1,-3.646862805E-1,1.070082426E0,9.246965498E-2
1.692884683E1,-4.192059636E-1,1.288771987E0,3.642281145E-2
1.694831069E1,-3.200931549E-1,1.298545837E0,-1.473711245E-2
1.696777454E1,-1.211039424E-1,1.105817914E0,-8.575014025E-2
1.698723840E1,-2.809977904E-2,1.144760609E0,-1.682168841E-1
1.700670225E1,7.299833745E-2,8.055779338E-1,-1.567631811E-1
1.702616600E1,1.942549944E-1,5.222893879E-2,-1.111010313E-1
1.704562986E1,3.477347791E-1,-4.819723070E-1,-1.303432733E-1
1.706509371E1,4.989238083E-1,-8.523091078E-1,-1.190422773E-1
1.708455756E1,4.993819594E-1,-1.059239507E0,-7.872519642E-2
1.710402131E1,3.688096106E-1,-1.063515544E0,-9.048434347E-2
1.712348517E1,2.321286201E-1,-1.107039690E0,-1.370627880E-1
1.714294902E1,6.291907281E-2,-1.083979607E0,-1.987601221E-1
1.716241288E1,-1.742491722E-1,-9.198096395E-1,-2.977202237E-1
1.718187663E1,-2.012799382E-1,-8.457422853E-1,-2.728274763E-1
1.720134048E1,-2.533561587E-1,-1.538004756E0,-1.265253723E-1
1.722080433E1,-7.113520503E-1,-3.080209255E0,3.507127464E-1
1.724026819E1,-3.604102135E-2,-2.406807244E-1,1.410334110E-1
1.725973194E1,-4.673115611E-1,2.410625219E0,-4.604393244E-2
1.727919579E1,-9.863939285E-1,2.106414557E0,5.261072889E-2
1.729865965E1,-7.506000996E-1,8.561269641E-1,1.463784724E-1
1.731812350E1,-3.833176494E-1,5.345066786E-1,1.764635593E-1
1.733758736E1,-2.206749022E-1,7.997747064E-1,1.865428388E-1
1.735705110E1,-6.933315098E-2,1.089477301E0,1.132390574E-1
1.737651496E1,1.534797698E-1,1.173471212E0,3.611737862E-2
1.739597881E1,3.190241456E-1,8.889609575E-1,3.642281145E-2
1.741544267E1,1.586721241E-1,8.657481074E-1,5.184714869E-2
1.743490652E1,9.926552884E-3,1.187979221E0,4.604393244E-2
1.745437027E1,-3.023780696E-2,9.363030195E-1,7.429642975E-2
1.747383413E1,1.511890348E-2,1.866191924E-1,6.620246917E-2
1.749329798E1,1.400407553E-1,-5.207622051E-1,-3.321577236E-2
1.751276183E1,2.614501119E-1,-1.082452416E0,-1.243873388E-1
1.753222558E1,3.023780584E-1,-1.432783365E0,-2.131154537E-1
1.755168944E1,2.661843300E-1,-1.559995890E0,-1.963166744E-1
1.757115329E1,1.104138121E-1,-1.300378442E0,-2.145662531E-2
1.759061715E1,9.819651395E-2,-1.338404775E0,8.284853399E-2
1.761008100E1,2.855792828E-2,-1.670256972E0,2.042579055E-1
1.762954475E1,-3.599520624E-1,-1.521511436E0,6.452259421E-2
1.764900861E1,1.437059343E-1,-1.476918340E0,2.028834671E-1
1.766847246E1,5.367974043E-1,9.103412628E-1,1.445458829E-1
1.768793631E1,3.532325625E-1,1.758068800E0,9.544761851E-3
1.770740017E1,1.855501831E-1,8.752164841E-1,1.336266659E-2
1.772686402E1,1.751654744E-1,5.207622051E-1,5.322159454E-2
1.774632777E1,1.939495653E-2,8.071050644E-1,9.140064567E-2
1.776579163E1,-1.171333194E-1,1.085353971E0,1.575267613E-1
1.778525548E1,-1.324049383E-1,1.393229842E0,1.685223281E-1
1.780471933E1,1.114828233E-2,1.308166981E0,9.369138628E-2
1.782418319E1,1.928805560E-1,9.356921315E-1,1.687514037E-2
1.784364694E1,4.592176080E-1,8.063415289E-1,-1.367573589E-1
1.786311079E1,4.466948807E-1,7.811433077E-1,-2.522107959E-1
1.788257465E1,2.837466896E-1,3.098611534E-1,-2.114355713E-1
1.790203850E1,3.883572817E-1,-5.270236135E-1,-2.331212759E-1
1.792150225E1,4.996874034E-1,-9.271399975E-1,-2.213621289E-1
1.794096610E1,4.459312856E-1,-1.182939649E0,-1.434768587E-1
1.796042996E1,2.897026241E-1,-1.036332130E0,-9.078978002E-2
1.797989381E1,9.850194305E-2,-7.932079434E-1,-5.856665969E-2
1.799935767E1,6.276635826E-2,-8.029817343E-1,-1.224020272E-1
1.801882142E1,1.595884264E-1,-8.407026529E-1,-1.213330179E-1
1.803828527E1,2.432768941E-1,-9.027054310E-1,2.069304511E-2
1.805774913E1,5.406153202E-2,-1.035415769E0,1.611919403E-1
1.807721298E1,-6.527090073E-1,-1.861763120E0,-7.612902671E-2
1.809667683E1,-1.317635298E0,-2.850447893E0,-6.900480986E-1
1.811614058E1,-3.634645417E-2,-5.283980444E-2,2.497673333E-1
1.813560444E1,-7.467821985E-2,2.523176908E0,2.577085793E-1
1.815506829E1,-1.142317131E-1,1.926972985E0,9.567669779E-2
1.817453215E1,2.600756884E-1,8.875865340E-1,1.787542999E-1
1.819399600E1,4.115701318E-1,6.708822250E-1,1.961639524E-1
1.821345975E1,1.959348768E-1,9.088140726E-1,5.933023989E-2
1.823292360E1,-1.026252806E-1,1.347873092E0,-3.917170316E-2
1.825238746E1,-2.559523284E-1,1.756694436E0,-6.513345987E-2
1.827185131E1,-2.652680278E-1,1.478445530E0,2.466366626E-2
1.829131517E1,-1.507308781E-1,1.038164735E0,2.405280061E-2
1.831077892E1,-7.941242307E-3,1.197905779E0,-4.772381112E-2
1.833024277E1,4.917461425E-2,9.527963400E-1,-1.306487024E-1
1.834970663E1,1.586721241E-1,1.087339297E-1,-9.063705802E-2
1.836917048E1,4.014908671E-1,-6.359102130E-1,-6.055197120E-2
1.838863433E1,4.999928176E-1,-1.115744472E0,-3.947713599E-2
1.840809819E1,4.129445851E-1,-1.418733478E0,-9.544761851E-3
1.842756194E1,2.675587833E-1,-1.645058870E0,2.298378758E-2
1.844702579E1,1.980729103E-1,-1.799913049E0,7.460185885E-2
1.846648965E1,1.663079411E-1,-1.640782833E0,1.934150606E-1
1.848595350E1,4.703658819E-2,-1.432019711E0,2.906952798E-1
1.850541736E1,-2.301433086E-1,-1.830150843E0,2.557996288E-2
1.852488111E1,-3.170388341E-1,-3.262934208E0,-3.023017049E-1
1.854434496E1,4.703658819E-1,-1.663079411E-1,3.557523787E-1
1.856380881E1,4.886918142E-2,2.217744589E0,2.237292193E-2
1.858327267E1,-2.188423127E-1,1.347414970E0,2.421315312E-1
1.860273652E1,-1.705839932E-1,4.850266278E-1,2.624427676E-1
1.862220038E1,-1.615737379E-1,4.723511934E-1,1.729510874E-1
1.864166413E1,-2.623664141E-1,7.872520089E-1,1.277471036E-1
1.866112798E1,-3.075704277E-1,9.989166260E-1,9.735657275E-2
1.868059183E1,-2.535088956E-1,1.017853379E0,9.414953738E-2
1.870005569E1,-8.933897316E-2,8.972076178E-1,7.078395784E-2
1.871951954E1,9.086613357E-2,9.217949510E-1,-1.656970754E-2
1.873898340E1,2.119700760E-1,6.988292933E-1,-9.017891437E-2
1.875844715E1,1.939495653E-1,3.023780696E-2,-1.046869531E-1
1.877791100E1,1.426369250E-1,-5.994110703E-1,-1.385899484E-1
1.879737486E1,1.815795600E-1,-9.899063706E-1,-1.619555205E-1
1.881683871E1,1.733328849E-1,-1.221118689E0,-1.373682171E-1
1.883630256E1,7.834340632E-2,-1.245400548E0,-1.286633909E-1
1.885576631E1,-8.246674202E-3,-1.072831273E0,-1.282052398E-1
1.887523017E1,-6.154462695E-2,-9.288198948E-1,-1.019380614E-1
1.889469402E1,-1.174387559E-1,-7.896954417E-1,-1.616500914E-1
1.891415788E1,-1.108719558E-1,-7.683151960E-1,-2.008981556E-1
1.893362173E1,-1.618791744E-2,-9.750928879E-1,-1.411861181E-1
1.895308548E1,-7.063124180E-1,-2.720028162E0,-3.581194952E-2
1.897254933E1,-2.162461281E-1,-2.888321400E0,1.417969912E-1
1.899201319E1,1.970038936E-2,1.929874539E0,1.731038094E-1
1.901147704E1,-4.463894367E-1,3.382205486E0,2.632063627E-1
1.903094090E1,-3.097084463E-1,2.279900074E0,2.795470059E-1
1.905040475E1,-1.163697392E-1,1.235015869E0,1.952476501E-1
1.906986860E1,-1.695149764E-2,1.142317176E0,1.019380614E-1
1.908933236E1,1.036942974E-1,1.133612275E0,5.367974192E-2
1.910879621E1,2.721402645E-1,1.006552458E0,-1.259908639E-2
1.912826006E1,4.057669342E-1,8.576541543E-1,-2.061668551E-3
1.914772392E1,3.431532979E-1,8.132137656E-1,1.611155830E-2
1.916718777E1,1.559232324E-1,8.619301915E-1,-6.498073786E-2
1.918665163E1,1.771507785E-2,5.971203446E-1,-1.214857325E-1
1.920611538E1,-1.557705179E-2,1.472184062E-1,-5.948295817E-2
1.922557923E1,5.849030241E-2,-2.991710305E-1,-4.130972922E-2
1.924504308E1,1.704312712E-1,-6.850848794E-1,-1.061377581E-2
1.926450694E1,2.399171442E-1,-9.318742156E-1,7.475458086E-2
1.928397079E1,2.605338395E-1,-1.209970355E0,2.537379563E-1
1.930343465E1,2.026543915E-1,-1.717293620E0,1.251509190E-1
1.932289840E1,-1.183550507E-1,-2.195600748E0,8.269581944E-2
1.934236225E1,-4.909825623E-1,-1.856112599E0,1.923460513E-1
1.936182611E1,-8.315396905E-1,-1.037248373E0,-2.079230994E-1
1.938128996E1,-3.547597229E-1,-1.231503367E0,3.329976499E-1
1.940075381E1,5.325213671E-1,1.012813807E0,4.357756674E-1
1.942021767E1,4.842630625E-1,1.892611861E0,3.516290486E-1
1.943968152E1,-2.703076601E-2,1.054505348E0,1.158352345E-1
1.945914527E1,-4.315759540E-1,6.311760545E-1,-3.336848691E-2
1.947860913E1,-5.276344419E-1,9.573778510E-1,3.184132650E-2
1.949807298E1,-4.535670877E-1,1.381317973E0,1.573740393E-1
1.951753683E1,-3.323104382E-1,1.680947185E0,1.636354029E-1
1.953700069E1,-1.873827726E-1,1.665217400E0,8.071050793E-2
1.955646454E1,3.497200832E-2,1.248607635E0,1.641699113E-2
1.957592840E1,2.064722925E-1,1.213330150E0,-3.428478539E-2
1.959539215E1,3.263545036E-1,1.231503367E0,-1.517235339E-1
1.961485600E1,2.952004075E-1,8.613193631E-1,-2.296088040E-1
1.963431986E1,3.813323379E-1,-5.528326333E-2,-1.761581302E-1
1.965378371E1,5.667297840E-1,-8.275690675E-1,-1.398116797E-1
1.967324756E1,6.592758298E-1,-1.176831007E0,-1.086575761E-1
1.969271142E1,5.093085170E-1,-1.235168576E0,-1.362992078E-1
1.971217517E1,2.616028488E-1,-1.214399219E0,-2.112828493E-1
1.973163902E1,2.000582218E-2,-1.157130599E0,-1.827249229E-1
1.975110288E1,-2.167042792E-1,-1.081688762E0,-4.772381112E-2
1.977056673E1,-2.703076601E-1,-9.750928879E-1,1.741728187E-1
1.979003058E1,-7.531962991E-1,-1.316871762E0,2.809214294E-1
1.980949444E1,-1.766926408E0,-2.933830738E0,-3.410916328E-1
1.982895819E1,-1.060308576E0,-2.696357250E0,-5.307651162E-1
1.984842204E1,-6.261364091E-3,5.148062706E-1,1.950949430E-1
1.986788590E1,-1.394298822E-1,1.966831923E0,2.870301008E-1
1.988734975E1,1.473711282E-1,1.281594276E0,2.584721744E-1
1.990681360E1,1.010370374E0,5.039634705E-1,3.378845751E-1
1.992627746E1,1.266933560E0,5.630646348E-1,2.337321341E-1
1.994574131E1,8.486438990E-1,8.058833480E-1,2.939786762E-2
1.996520517E1,4.833467603E-1,1.065959096E0,-2.970330045E-2
1.998466892E1,2.528980076E-1,1.245705962E0,3.741546767E-3
2.000413277E1,-2.168569900E-2,1.020755053E0,6.070468575E-2
2.002359663E1,-3.165806830E-1,5.613847375E-1,1.126281917E-1
2.004306048E1,-4.772381186E-1,7.707586288E-1,8.628465235E-3
2.006252433E1,-5.665770769E-1,7.067705393E-1,-5.184714869E-2
2.008198819E1,-5.216785073E-1,3.113883138E-1,-7.658717036E-2
2.010145194E1,-1.574503928E-1,-2.889390290E-1,-1.118646115E-1
2.012091579E1,3.168860972E-1,-7.932079434E-1,-7.979421318E-2
2.014037965E1,6.467530727E-1,-1.123074889E0,-2.367100911E-3
2.015984350E1,7.351757884E-1,-1.182939649E0,4.283689335E-2
2.017930736E1,6.717985272E-1,-1.085201263E0,6.803506613E-2
2.019877121E1,5.143481493E-1,-8.037453294E-1,5.322159454E-2
2.021823506E1,2.386954129E-1,-5.383245945E-1,3.894262947E-3
2.023769881E1,2.076940238E-2,-3.596466482E-1,-6.070468575E-2
2.025716267E1,-1.626427472E-1,-1.356883407E0,-5.963567272E-2
2.027662652E1,-1.902843714E-1,-3.189325094E0,-1.344666034E-1
2.029609038E1,5.777253509E-1,-2.129627228E0,2.435059696E-1
2.031555423E1,4.902189970E-1,1.597564101E0,-1.596647799E-1
2.033501808E1,-2.655734718E-1,2.085034132E0,-1.815031916E-1
2.035448194E1,-6.407971382E-1,1.111621141E0,-7.414371520E-2
2.037394579E1,-6.519454122E-1,4.256200492E-1,2.237292193E-2
2.039340954E1,-3.455967605E-1,4.294379354E-1,1.353829056E-1
2.041287340E1,-2.703076601E-2,7.104357481E-1,1.500436664E-1
2.043233725E1,1.973093301E-1,1.047174931E0,7.414371520E-2
2.045180110E1,3.813323379E-1,1.173776627E0,-6.757691503E-2
2.047126496E1,3.863719702E-1,1.160490394E0,-2.598465979E-1
2.049072881E1,2.823722363E-1,1.157588720E0,-3.475056887E-1
2.051019267E1,1.319467872E-1,7.883210182E-1,-2.796997130E-1
2.052965642E1,5.039634649E-3,2.000582218E-1,-1.532506943E-1
2.054912027E1,9.224057943E-2,-3.051269650E-1,-1.159879491E-1
2.056858413E1,2.148716897E-1,-7.884737253E-1,-7.246383280E-2
2.058804798E1,2.342666388E-1,-1.076954603E0,-2.649625950E-2
2.060751183E1,2.115119249E-1,-1.135903001E0,-8.804088831E-2
2.062697569E1,8.155044913E-2,-1.111315727E0,-1.575267613E-1
2.064643954E1,-9.498947114E-2,-1.036332130E0,-2.103665620E-1
2.066590329E1,-1.470656991E-1,-9.034690261E-1,-6.574432552E-2
2.068536715E1,-4.440986812E-1,-1.048854828E0,1.182786897E-1
2.070483100E1,-1.849087715E0,-1.946215153E0,-8.215367794E-1
2.072429486E1,-9.818124175E-1,-2.284786940E0,-1.607337892E-1
2.074375871E1,-3.520108163E-1,1.567784429E0,3.319286406E-1
2.076322256E1,-4.639517963E-1,2.765384912E0,4.150062501E-1
2.078268642E1,1.084284950E-2,2.037539482E0,3.045924604E-1
2.080215027E1,4.192059636E-1,1.181717873E0,3.378845751E-1
2.082161402E1,6.020072699E-1,1.160337687E0,3.299433291E-1
2.084107788E1,5.132791400E-1,1.202945471E0,2.616792023E-1
2.086054173E1,4.011854529E-1,1.335961223E0,1.934150606E-1
2.088000558E1,2.635881603E-1,1.289382815E0,1.338557452E-1
2.089946944E1,-7.330377586E-3,1.137582898E0,6.940951198E-2
2.091893329E1,-4.193586707E-1,1.052214622E0,-8.025235683E-2
2.093839715E1,-7.542653084E-1,7.701478004E-1,-2.175442129E-1
2.095786100E1,-7.826704979E-1,1.408043355E-1,-1.474474818E-1
2.097732475E1,-5.676460862E-1,-4.434878230E-1,-3.840812296E-2
2.099678861E1,-3.642281294E-1,-8.231402636E-1,8.651372790E-2
2.101625246E1,-1.892153621E-1,-1.115744472E0,2.633590698E-1
2.103571631E1,-6.108647794E-4,-1.629481792E0,3.986656368E-1
2.105518017E1,4.344775677E-1,-2.482249022E0,1.373682171E-1
2.107464402E1,3.109301627E-1,-2.577543974E0,-2.228892893E-1
2.109410788E1,-3.527744114E-1,-2.514166832E0,1.885281354E-1
2.111357173E1,-4.024071693E-1,-2.172693253E0,-2.366337478E-1
2.113303558E1,4.132500291E-1,7.803797722E-2,5.406916738E-1
2.115249933E1,2.690859437E-1,2.286314249E0,1.051450968E-1
2.117196319E1,6.551524997E-2,1.470351577E0,4.879282415E-2
2.119142704E1,-2.689332068E-1,6.382009983E-1,-2.192240953E-1
2.121089090E1,-2.429714650E-1,7.472403646E-1,-1.714239269E-1
2.123035475E1,-2.573267817E-1,9.671516418E-1,5.551233515E-2
2.124981860E1,-2.948949635E-1,1.120478749E0,1.549305767E-1
2.126928246E1,-1.459966749E-1,1.153465390E0,1.256090701E-1
2.128874631E1,1.965457499E-1,8.497129083E-1,9.476039559E-2
2.130821006E1,4.764745235E-1,1.006705165E0,5.581776798E-2
2.132767392E1,6.812669635E-1,1.059544921E0,-2.283107117E-2
2.134713777E1,6.456840634E-1,5.085449219E-1,-9.903645515E-2
2.136660163E1,5.138899684E-1,-2.652680278E-1,-1.981492639E-1
2.138606548E1,4.360047281E-1,-7.270817757E-1,-2.894735336E-1
2.140552933E1,3.578140438E-1,-9.666935205E-1,-3.016908467E-1
2.142499319E1,2.425133139E-1,-1.019075155E0,-2.919169962E-1
2.144445704E1,9.880737960E-2,-1.116966248E0,-2.792415619E-1
2.146392079E1,5.070177838E-2,-1.413388371E0,-1.676060259E-1
2.148338465E1,7.788526267E-2,-1.521053314E0,-2.435823344E-2
2.150284850E1,8.994983882E-2,-1.341153622E0,2.390008420E-2
2.152231236E1,5.054906011E-2,-1.275791049E0,2.274707705E-1
2.154177621E1,-5.467239618E-1,-1.992640853E0,3.932442144E-2
2.156124006E1,-1.191491723E0,-2.369086266E0,-1.773798615E-1
2.158070392E1,-4.057669342E-1,-8.032871783E-2,8.223766834E-2
2.160016777E1,-3.411679864E-1,2.008370638E0,1.989128441E-1
2.161963163E1,-4.642572254E-2,1.744629860E0,1.492800862E-1
2.163909538E1,7.851139307E-1,8.759800792E-1,2.926805913E-1
2.165855923E1,9.323323965E-1,6.096430421E-1,4.053851366E-1
2.167802308E1,5.725330114E-1,9.363030195E-1,2.091448307E-1
2.169748694E1,2.619082630E-1,1.285564899E0,5.001455545E-2
2.171695079E1,1.658497900E-1,1.441946268E0,2.588539571E-2
2.173641465E1,-5.192350596E-3,1.322980404E0,7.612902671E-2
2.175587850E1,-2.587012351E-1,9.172134399E-1,7.108938694E-2
2.177534236E1,-2.721402645E-1,9.182825089E-1,-4.222602770E-2
2.179480621E1,-4.838049114E-1,6.608029604E-1,-1.886808574E-1
2.181426996E1,-6.673697829E-1,1.915061027E-1,-1.598175019E-1
2.183373381E1,-3.824013472E-1,-2.956585586E-1,-1.126281917E-1
2.185319767E1,1.466075517E-2,-7.072287202E-1,-2.985601686E-2
2.187266152E1,2.904661894E-1,-1.094975114E0,2.634354308E-2
2.189212538E1,3.885099888E-1,-1.375056624E0,7.353284955E-2
2.191158923E1,3.003927469E-1,-1.464242935E0,7.322741300E-2
2.193105308E1,9.712749720E-2,-1.301752806E0,9.277509153E-2
2.195051694E1,-4.276053514E-3,-8.991929293E-1,1.300378442E-1
2.196998079E1,3.924806044E-2,-1.080008984E0,1.414915472E-1
2.198944454E1,-2.787070572E-1,-2.164599419E0,1.962403022E-2
2.200890840E1,-2.535088956E-1,-2.780961990E0,-1.027016416E-1
2.202837225E1,4.891499579E-1,1.156061590E-1,1.621082425E-1
2.204783611E1,-5.329795182E-2,2.141844749E0,-2.708421648E-1
2.206729996E1,-1.614210159E-1,1.593898892E0,-9.903645515E-2
2.208676381E1,-4.886918142E-2,6.805033684E-1,-1.002581790E-1
2.210622767E1,9.514218569E-2,5.435169339E-1,-7.521272451E-2
2.212569152E1,4.352411628E-2,7.151699662E-1,1.603520010E-3
2.214515538E1,-5.742128938E-2,9.529490471E-1,1.672242396E-2
2.216461923E1,-1.423314959E-1,1.185077667E0,-3.352120519E-2
2.218408298E1,-1.334739476E-1,1.150411129E0,-9.537126124E-2
2.220354683E1,-7.345648855E-2,1.017395258E0,-1.010217592E-1
2.222301069E1,6.261364091E-3,7.722858191E-1,-1.622609496E-1
2.224247454E1,5.497782957E-3,3.625482321E-1,-1.030070707E-1
2.226193840E1,1.939495653E-2,-2.189950198E-1,-7.475458086E-2
2.228140225E1,1.380554438E-1,-6.145299673E-1,-1.165988147E-1
2.230086610E1,1.899789423E-1,-9.608902931E-1,-1.065195426E-1
2.232032996E1,1.635590494E-1,-1.307556033E0,-1.337030232E-1
2.233979381E1,1.180496216E-1,-1.501352906E0,-1.225547493E-1
2.235925756E1,9.407317638E-2,-1.596189618E0,-1.136972085E-1
2.237872142E1,-4.978547990E-2,-1.423467636E0,-1.046869531E-1
2.239818527E1,-3.601047993E-1,-9.479094148E-1,-5.994110554E-2
2.241764913E1,-1.096655011E0,-9.708168507E-1,-5.333613157E-1
2.243711298E1,-9.233221412E-1,-2.225838423E0,-4.941132367E-1
2.245657683E1,-1.618791744E-2,1.921627879E0,2.169333547E-1
2.247604069E1,-2.875646055E-1,3.243233919E0,2.348011434E-1
2.249550454E1,-2.167042792E-1,2.475682259E0,4.217257798E-1
2.251496840E1,-6.307178736E-2,1.729510903E0,3.705658615E-1
2.253443225E1,-6.215549260E-2,1.752571106E0,2.477820218E-1
2.255389610E1,1.006399691E-1,1.661399484E0,2.126573026E-1
2.257335986E1,2.919933498E-1,1.442557216E0,1.107956022E-1
2.259282371E1,2.787070572E-1,1.128878117E0,7.444914430E-2
2.261228756E1,5.803215504E-2,8.426879644E-1,1.124754772E-1
2.263175142E1,-1.307250559E-1,7.695369124E-1,9.308052063E-2
2.265121527E1,-1.383608729E-1,5.415316224E-1,5.169443041E-2
2.267067913E1,-1.372918636E-1,-2.321286127E-2,3.321577236E-2
2.269014298E1,-1.334739476E-1,-5.218312144E-1,-3.291033953E-2
2.270960683E1,-1.322522312E-1,-8.819360137E-1,-1.205694377E-1
2.272907069E1,-1.430950761E-1,-1.078939915E0,-1.673005968E-1
2.274853444E1,-1.201876476E-1,-1.334434152E0,-1.685223281E-1
2.276799829E1,1.204930767E-1,-1.685070515E0,-7.124210149E-2
2.278746215E1,5.172497630E-1,-2.256076336E0,-1.034652218E-1
2.280692600E1,3.278816640E-1,-2.799593210E0,-1.028543562E-1
2.282638986E1,3.257436454E-1,-2.157879829E0,6.482802331E-2
2.284585371E1,5.021308661E-1,-1.029765248E0,4.698313773E-1
2.286531756E1,2.331976295E-1,4.456258714E-1,1.970802546E-1
2.288478142E1,-1.702785641E-1,9.025527239E-1,-9.185878932E-2
2.290424527E1,-1.803578287E-1,8.575014472E-1,1.685223281E-1
2.292370913E1,-1.884517819E-1,3.575085998E-1,2.348011434E-1
2.294317298E1,-3.113883138E-1,5.943714380E-1,1.193477064E-1
2.296263683E1,-4.477638900E-1,1.253036380E0,1.633299738E-1
2.298210058E1,-5.997164845E-1,1.510363221E0,2.154061943E-1
2.300156444E1,-6.186532974E-1,1.358410597E0,1.708130687E-1
2.302102829E1,-3.941605091E-1,1.093295217E0,1.115591824E-1
2.304049215E1,2.382372692E-2,9.176716208E-1,1.173623949E-1
2.305995600E1,6.151408553E-1,5.835285783E-1,5.093085021E-2
2.307941986E1,9.366084337E-1,-3.581194878E-1,-2.542724647E-2
2.309888371E1,9.401208758E-1,-1.157436013E0,-2.060905099E-1
2.311834756E1,8.823941946E-1,-1.449887514E0,-3.533089161E-1
2.313781142E1,8.208495378E-1,-1.524107575E0,-4.027889669E-1
2.315727517E1,8.171843290E-1,-1.227685452E0,-3.456731141E-1
2.317673902E1,8.060360551E-1,-1.003192663E0,-2.910007238E-1
2.319620288E1,7.692314982E-1,-8.657481074E-1,-2.766453922E-1
2.321566673E1,7.452550530E-1,-6.698132157E-1,-1.570686102E-1
2.323513058E1,6.914989352E-1,-5.415316224E-1,7.368556410E-2
2.325459444E1,6.206386089E-1,-8.035926223E-1,3.389535844E-1
2.327405829E1,3.039052337E-2,-1.738368392E0,4.890736043E-1
2.329352215E1,-1.471267819E0,-3.755596638E0,1.550832987E-1
2.331298600E1,-1.985310555E0,-3.455204010E0,-7.935897112E-1
2.333244986E1,-6.566796303E-1,-7.125737667E-1,-1.752418280E-1
2.335191360E1,-3.539961278E-1,2.645349979E0,2.731329203E-1
2.337137746E1,-2.606865466E-1,2.888321400E0,1.479056329E-1
2.339084131E1,-2.371682525E-1,2.015701056E0,3.779725730E-2
2.341030517E1,-1.481347084E-1,1.528536439E0,5.490147322E-2
2.342976902E1,2.382372692E-2,1.083521366E0,1.477529258E-1
2.344923288E1,2.147189677E-1,7.186824083E-1,2.942077518E-1
2.346869673E1,1.979201883E-1,3.956876695E-1,2.312886715E-1
2.348816058E1,-1.154534444E-1,3.135263622E-1,1.019380614E-1
2.350762444E1,-2.692386508E-1,6.298015714E-1,1.656970754E-2
2.352708829E1,-1.638644785E-1,9.228639603E-1,-5.123628303E-2
2.354655215E1,2.733619884E-2,6.461422443E-1,-5.016727000E-2
2.356601600E1,2.435823381E-1,2.102901936E-1,-3.199404106E-2
2.358547975E1,4.416552484E-1,-2.357937992E-1,1.153007243E-2
2.360494361E1,5.537489057E-1,-6.068941355E-1,8.009964228E-2
2.362440746E1,5.213730931E-1,-8.042035103E-1,1.233183295E-1
2.364387131E1,3.849975169E-1,-8.121446967E-1,1.213330179E-1
2.366333517E1,2.360992432E-1,-6.148353815E-1,1.109483168E-1
2.368279902E1,6.459894776E-2,-3.356702030E-1,8.300124854E-2
2.370226288E1,-5.742128938E-2,-3.252854943E-1,2.588539571E-2
2.372172673E1,-2.251036763E-1,-1.339626431E0,-8.162680268E-2
2.374119058E1,-4.633409381E-1,-2.643211842E0,-1.778380126E-1
2.376065444E1,3.304778337E-1,-5.044215918E-1,2.607629001E-1
2.378011829E1,2.428187430E-2,2.344499111E0,-1.589011997E-1
2.379958215E1,-4.292852283E-1,2.407112598E0,1.196531355E-1
2.381904600E1,-4.405862093E-1,1.130710721E0,2.085339576E-1
2.383850986E1,-3.236056268E-1,4.127918780E-1,1.865428388E-1
2.385797360E1,-2.180787325E-1,3.165806830E-1,1.240819097E-1
2.387743746E1,-1.579085439E-1,5.983420610E-1,5.703949928E-2
2.389690131E1,-1.014035568E-1,8.219185472E-1,-3.840812296E-2
2.391636517E1,-1.985310577E-2,8.426879644E-1,-1.393535286E-1
2.393582902E1,6.505709887E-2,8.883501291E-1,-1.940259188E-1
2.395529288E1,1.927278340E-1,8.316923976E-1,-1.711184978E-1
2.397475673E1,2.460257858E-1,6.227766275E-1,-1.149189398E-1
2.399422058E1,3.028362095E-1,-7.254019380E-2,-3.520108387E-2
2.401368444E1,3.894262910E-1,-6.036871076E-1,2.939786762E-2
2.403314829E1,4.511236250E-1,-9.340122342E-1,3.123046272E-2
2.405261215E1,4.367683232E-1,-1.166904449E0,-5.367974192E-2
2.407207590E1,4.227184355E-1,-1.376889229E0,-1.523344070E-1
2.409153975E1,3.568977416E-1,-1.496466041E0,-2.399934977E-1
2.411100360E1,2.379318327E-1,-1.436906695E0,-2.911534309E-1
2.413046746E1,1.925751269E-1,-1.413541079E0,-1.054505333E-1
2.414993131E1,-8.148936033E-1,-1.769675255E0,-1.625663936E-1
2.416939517E1,-1.268155336E0,-3.088074207E0,-5.533671379E-1
2.418885902E1,3.970621154E-3,7.794634700E-1,2.575558722E-1
2.420832288E1,-2.823722363E-1,4.042703152E0,4.515054226E-1
2.422778673E1,-1.675296724E-1,3.129612923E0,6.552288532E-1
2.424725058E1,-9.178243577E-2,1.530521750E0,5.081631541E-1
2.426671444E1,-4.841103405E-2,8.813251853E-1,3.566686809E-1
2.428617829E1,2.718348242E-2,5.878046155E-1,2.225838602E-1
2.430564215E1,1.684459597E-1,3.649916947E-1,6.116283685E-2
2.432510600E1,2.973384261E-1,5.244274139E-1,1.733328775E-2
2.434456975E1,-1.052214578E-1,1.182481527E0,1.254563481E-1
2.436403361E1,-5.041161776E-1,1.594051600E0,-6.681333482E-2
2.438349746E1,-5.561923981E-1,1.310610414E0,-2.732856274E-1
2.440296131E1,-3.665188551E-1,4.581485875E-3,-2.939023077E-1
2.442242517E1,-1.203403622E-1,-7.298306823E-1,-2.189186662E-1
2.444188902E1,1.853974611E-1,-1.215926290E0,-1.604283601E-1
2.446135288E1,3.260490894E-1,-1.560301304E0,-1.450040340E-1
2.448081673E1,3.306305707E-1,-1.762650371E0,-1.530979872E-1
2.450028058E1,2.383899838E-1,-1.768911719E0,-5.627591908E-2
2.451974444E1,-7.086031139E-2,-1.581834316E0,3.123046272E-2
2.453920819E1,-6.352993846E-1,-1.444847941E0,2.210566849E-1
2.455867204E1,-1.230739832E0,-1.819918871E0,2.983310819E-1
2.457813590E1,-7.509055138E-1,-3.815690517E0,5.845212340E-1
2.459759975E1,8.058833480E-1,-8.371901512E-1,6.329322457E-1
2.461706361E1,8.197805285E-1,2.350455046E0,-2.745073736E-1
2.463652746E1,-4.596757516E-2,2.565937519E0,-2.352592945E-1
2.465599131E1,-4.030180275E-1,1.740506530E0,-3.978256881E-2
2.467545517E1,-4.995346665E-1,1.060919404E0,1.931096315E-1
2.469491902E1,-5.780308247E-1,8.075632453E-1,2.103665620E-1
2.471438288E1,-6.608029604E-1,8.361211419E-1,1.373682171E-1
2.473384673E1,-5.334376693E-1,7.750346661E-1,8.147408813E-2
2.475331058E1,-1.227838174E-1,8.074105382E-1,5.673406646E-2
2.477277444E1,2.050978541E-1,9.260709882E-1,-4.192059487E-2
2.479223829E1,2.660316229E-1,8.061888218E-1,-2.264017612E-1
2.481170204E1,1.930332631E-1,2.788597643E-1,-3.111592531E-1
2.483116590E1,1.574503928E-1,-4.004218578E-1,-2.745073736E-1
2.485062975E1,2.557996213E-1,-5.655080676E-1,-1.880699992E-1
2.487009360E1,4.095848203E-1,-6.574432254E-1,-9.949459881E-2
2.488955746E1,4.737256467E-1,-7.156280875E-1,-1.422551423E-1
2.490902131E1,5.427533388E-1,-6.902772188E-1,-2.071595192E-1
2.492848517E1,6.108647585E-1,-5.140427351E-1,-1.563050300E-1
2.494794902E1,6.736311316E-1,-3.698786199E-1,1.908952487E-3
2.496741288E1,6.809614897E-1,-4.529562294E-1,6.192641705E-2
2.498687663E1,4.708240330E-1,-1.016479015E0,1.442404389E-1
2.500634048E1,1.290451884E-1,-1.720195174E0,1.692859083E-1
2.502580433E1,-8.962913752E-1,-3.525147915E0,-3.489565104E-2
2.504526819E1,-2.464839369E-1,-2.991863012E0,-3.441459537E-1
2.506473204E1,4.454731345E-1,1.608254194E0,2.653443813E-1
2.508419590E1,-8.063415438E-2,3.763079643E0,1.318704337E-1
2.510365975E1,-6.945532560E-1,2.426813126E0,5.444332212E-2
2.512312360E1,-8.165735006E-1,7.802270651E-1,1.442404389E-1
2.514258746E1,-7.202095985E-1,4.906771481E-1,5.902481079E-2
2.516205131E1,-5.212203860E-1,4.466948807E-1,-2.313650399E-2
2.518151517E1,-1.175914705E-1,5.781835318E-1,9.239329956E-3
2.520097902E1,2.417497337E-1,9.117156863E-1,8.147408813E-2
2.522044288E1,4.341721535E-1,1.018006206E0,1.037706509E-1
2.523990673E1,3.178023994E-1,1.177136421E0,-1.733328775E-2
2.525937058E1,4.825831577E-2,1.130558014E0,-6.604975462E-2
2.527883433E1,7.803797722E-2,6.411026120E-1,4.421133921E-2
2.529829819E1,3.170388341E-1,-2.054032832E-1,9.430225194E-2
2.531776204E1,4.663952589E-1,-8.031344414E-1,2.290742996E-4
2.533722590E1,4.723511934E-1,-1.178205490E0,-7.887791097E-2
2.535668975E1,3.723220825E-1,-1.344666123E0,-1.613446623E-1
2.537615361E1,2.365573794E-1,-1.357036114E0,-2.470184416E-1
2.539561746E1,1.226311028E-1,-1.217300773E0,-2.221257091E-1
2.541508131E1,-9.621120058E-3,-9.798271060E-1,-1.332448870E-1
2.543454517E1,1.146898642E-1,-7.293725610E-1,1.427896414E-2
2.545400902E1,5.818486959E-2,-1.517388105E0,-1.001054645E-1
2.547347288E1,8.582650125E-2,-2.555552721E0,-5.398517475E-2
2.549293673E1,2.318231910E-1,2.061668634E-1,1.764635593E-1
2.551240058E1,-8.078686893E-2,2.130543709E0,7.918334752E-2
2.553186433E1,-2.660316229E-1,1.704159975E0,3.487274349E-1
2.555132819E1,-4.463894367E-1,5.386300087E-1,1.679114550E-1
2.557079204E1,-3.665188551E-1,2.496909797E-1,1.240819097E-1
2.559025590E1,-1.488982886E-1,5.693259835E-1,1.375209391E-1
2.560971975E1,-9.880737960E-2,1.029307127E0,1.417969912E-1
2.562918360E1,-1.734855920E-1,1.259450436E0,9.689842910E-2
2.564864746E1,-2.043342739E-1,1.166904449E0,6.711876392E-2
2.566811131E1,-1.788306683E-1,9.833396077E-1,1.395062506E-1
2.568757517E1,-5.711585656E-2,7.296779752E-1,9.460768104E-2
2.570703902E1,1.044578776E-1,2.926042378E-1,-2.367100911E-3
2.572650288E1,2.677114904E-1,-6.149880886E-1,-8.605557680E-2
2.574596663E1,3.909534514E-1,-1.044273376E0,-1.237764731E-1
2.576543048E1,4.749473631E-1,-1.137735605E0,-7.979421318E-2
2.578489433E1,4.532616735E-1,-1.205541611E0,-2.512181364E-2
2.580435819E1,3.706422150E-1,-1.264642835E0,4.046979360E-3
2.582382204E1,2.527453005E-1,-1.298087597E0,-1.076649129E-2
2.584328590E1,1.259908676E-1,-1.275638342E0,-2.939786762E-2
2.586274975E1,-3.512472380E-3,-1.257770538E0,3.291033953E-2
2.588221360E1,-2.202167511E-1,-1.111163020E0,8.147408813E-2
2.590167746E1,-1.322216868E0,-2.122755051E0,-9.239329956E-3
2.592114131E1,-6.617192626E-1,-2.059225082E0,1.541669965E-1
2.594060517E1,4.894554019E-1,2.321744204E0,5.642863363E-2
2.596006902E1,1.760817766E-1,2.778213024E0,3.267363012E-1
2.597953277E1,1.046105921E-1,1.656665325E0,3.722457290E-1
2.599899663E1,2.519817352E-1,9.802852273E-1,3.786598146E-1
2.601846048E1,3.552178741E-1,1.060766697E0,2.957349122E-1
2.603792433E1,4.069886506E-1,1.230129004E0,1.691331863E-1
2.605738819E1,3.430005610E-1,1.342833519E0,2.519817324E-3
2.607685204E1,2.162461281E-1,1.288008332E0,-1.146135032E-1
2.609631590E1,5.574141070E-2,1.353829026E0,-1.596647799E-1
2.611577975E1,-1.873827726E-1,1.565035582E0,-3.252091408E-1
2.613524361E1,-3.081812859E-1,1.233946800E0,-4.249328077E-1
2.615470746E1,-2.275471240E-1,1.464548260E-1,-3.212385178E-1
2.617417131E1,3.313941509E-2,-6.035344005E-1,-2.193768173E-1
2.619363517E1,3.378082216E-1,-1.000138402E0,-1.358410567E-1
2.621309902E1,4.382954836E-1,-1.167973399E0,-6.650790572E-2
2.623256277E1,3.524689674E-1,-1.199280262E0,-6.345357746E-2
2.625202663E1,1.348484010E-1,-1.013730049E0,-8.132137358E-2
2.627149048E1,-1.708894223E-1,-5.380191803E-1,1.030834299E-2
2.629095433E1,-3.291034102E-1,-8.533781171E-1,7.612902671E-2
2.631041819E1,-6.669116020E-1,-1.309541345E0,7.231111825E-2
2.632988204E1,-6.931788325E-1,-1.908647060E0,-6.421715766E-2
2.634934590E1,-1.359174121E-2,-1.476612926E0,1.792124510E-1
2.636880975E1,1.513417512E-1,1.397505879E0,-6.818778068E-2
2.638827361E1,4.489856213E-2,1.849393129E0,-1.248454899E-1
2.640773746E1,2.583957911E-1,8.871283531E-1,-6.772962958E-2
2.642720131E1,4.039343297E-1,4.094321132E-1,-4.115701467E-2
2.644666517E1,2.067777216E-1,4.540252388E-1,2.466366626E-2
2.646612902E1,-7.971785218E-2,7.319687009E-1,6.482802331E-2
2.648559277E1,-2.254091054E-1,1.118646145E0,5.535962060E-2
2.650505663E1,-1.808159798E-1,1.253189087E0,4.963276442E-3
2.652452048E1,-7.589995116E-2,1.205541611E0,-4.421133921E-2
2.654398433E1,-4.001164436E-2,1.067791581E0,-1.497382224E-1
2.656344819E1,-1.157588735E-1,7.976366878E-1,-3.015381396E-1
2.658291204E1,-1.591302752E-1,6.594285369E-1,-2.528216541E-1
2.660237590E1,4.917461425E-2,-1.624900252E-1,-1.828776449E-1
2.662183975E1,2.360992432E-1,-9.810488224E-1,-1.428660005E-1
2.664130360E1,3.104720116E-1,-1.251203775E0,-1.095738709E-1
2.666076746E1,2.402225733E-1,-1.344055176E0,-1.561523080E-1
2.668023121E1,1.469129771E-1,-1.338710189E0,-2.457967103E-1
2.669969506E1,2.028071135E-1,-1.296407819E0,-2.570977211E-1
2.671915892E1,2.351829410E-1,-1.153312683E0,-1.459203213E-1
2.673862277E1,1.653916389E-1,-1.078481793E0,-6.337722298E-3
2.675808663E1,-5.772672221E-2,-1.449887514E0,1.370627880E-1
2.677755048E1,-3.393353820E-1,-1.760206819E0,3.953058720E-1
2.679701433E1,-9.891427755E-1,-1.523191333E0,1.718820781E-1
2.681647819E1,-6.125446558E-1,-1.448513150E0,-6.712640524E-1
2.683594204E1,1.091920808E-1,2.234543324E0,-1.311068535E-1
2.685540590E1,2.087630332E-1,2.428645611E0,1.640935540E-1
2.687486975E1,2.892444730E-1,1.251814604E0,8.040507883E-2
2.689433360E1,8.918625861E-2,8.428406715E-1,-8.422297984E-2
2.691379746E1,-1.220202371E-1,1.294422507E0,-5.856665969E-2
2.693326121E1,-1.821904182E-1,1.641699076E0,5.154171586E-2
2.695272506E1,-1.182023361E-1,1.694386125E0,1.503490955E-1
2.697218892E1,1.640172005E-1,1.398116708E0,3.137554228E-1
2.699165277E1,3.878991306E-1,1.008843184E0,3.262781501E-1
2.701111663E1,2.276998460E-1,9.766200781E-1,1.857792437E-1
2.703058048E1,-1.261435747E-1,8.839213252E-1,1.153007243E-2
2.705004433E1,-2.634354234E-1,2.449567765E-1,-1.005636156E-1
2.706950819E1,-1.850920320E-1,-5.532907844E-1,-9.109520912E-2
2.708897204E1,-6.856957078E-2,-9.459241033E-1,-7.635809743E-5
2.710843590E1,-3.711003438E-2,-1.248149514E0,9.934188426E-2
2.712789975E1,-9.010255337E-2,-1.510821342E0,1.457676142E-1
2.714736361E1,-1.160643101E-1,-1.736230373E0,1.308014244E-1
2.716682746E1,-1.094975099E-1,-1.784183264E0,7.796161622E-2
2.718629131E1,3.802633286E-2,-1.913075805E0,-2.328922041E-2
2.720575517E1,1.652389169E-1,-2.712392330E0,9.124792367E-2
2.722521902E1,6.108647585E-1,-3.242775679E0,4.200458825E-1
2.724468288E1,9.166026115E-1,-1.580612659E-1,3.650680780E-1
2.726414673E1,-2.672533318E-2,2.319453478E0,-4.644863009E-1
2.728361058E1,-5.789470673E-1,1.963624835E0,-1.156825200E-1
2.730307444E1,-6.736311316E-1,1.293658853E0,4.161516204E-2
2.732253819E1,-4.323395491E-1,1.234710455E0,1.723402292E-1
2.734200204E1,-3.092502952E-1,1.428507328E0,1.637881249E-1
2.736146590E1,-2.968802750E-1,1.558163285E0,1.776852906E-1
2.738092975E1,-2.467893660E-1,1.530216217E0,1.970802546E-1
2.740039360E1,-7.819069177E-2,1.352912784E0,1.553887278E-1
2.741985746E1,2.947422490E-2,1.336572170E0,9.414953738E-2
2.743932131E1,-5.619955808E-2,1.020907760E0,-1.443168055E-2
2.745878517E1,-2.568686306E-1,2.420551628E-1,-1.126281917E-1
2.747824902E1,-2.938259542E-1,-5.907062292E-1,-1.075885594E-1
2.749771288E1,-1.320995092E-1,-7.927497625E-1,-8.895718306E-2
2.751717673E1,7.452550530E-2,-9.176716208E-1,-9.392046370E-3
2.753664058E1,2.359465212E-1,-1.047480345E0,-5.726857111E-3
2.755610444E1,3.274235129E-1,-1.180496216E0,-7.475458086E-2
2.757556829E1,3.526217043E-1,-1.328172803E0,-1.674533039E-1
2.759503215E1,2.557996213E-1,-1.195004225E0,-3.355938494E-1
2.761449600E1,3.003927469E-1,-1.127809048E0,-2.816850245E-1
2.763395986E1,3.173442483E-1,-1.291978955E0,-4.879282415E-2
2.765342371E1,-1.085201263E0,-3.692677498E0,4.295142889E-1
2.767288756E1,-6.994401664E-2,-2.627787590E0,-3.642281145E-2
2.769235142E1,6.750056148E-2,1.923613191E0,-8.605557680E-2
2.771181527E1,-2.498437017E-1,2.976591349E0,-4.283689335E-2
2.773127913E1,-6.841685623E-2,2.018297195E0,7.582359016E-2
2.775074298E1,2.054032832E-1,1.000901937E0,7.612902671E-2
2.777020683E1,2.857320011E-1,8.895718455E-1,3.107774630E-2
2.778967069E1,2.043342739E-1,9.256128669E-1,-1.198822167E-2
2.780913454E1,7.773254067E-2,8.839213252E-1,-8.636100590E-2
2.782859840E1,-9.911280870E-2,8.481857181E-1,-7.841976732E-2
2.784806225E1,-2.350302190E-1,9.301943183E-1,-4.024071619E-2
2.786752611E1,-2.594648004E-1,1.068860650E0,-1.033125073E-1
2.788698996E1,-2.168570012E-1,9.068287611E-1,-1.460730433E-1
2.790645381E1,-3.695731983E-2,1.049160287E-1,-9.567669779E-2
2.792591767E1,2.220493406E-1,-4.853320718E-1,-1.132390574E-1
2.794538152E1,3.946186602E-1,-1.028085470E0,-8.895718306E-2
2.796484538E1,4.283689260E-1,-1.303127289E0,-4.436405376E-2
2.798430923E1,3.691150546E-1,-1.497076869E0,-1.908952487E-3
2.800377308E1,3.005454838E-1,-1.702785611E0,-7.185296714E-2
2.802323694E1,2.063195854E-1,-1.942702770E0,-1.782961637E-1
2.804270079E1,-1.475238502E-1,-1.549916625E0,-1.663842946E-1
2.806216465E1,2.533561587E-1,-1.707977891E0,4.272235632E-1
2.808162850E1,6.152935624E-1,5.655080676E-1,1.859319657E-1
2.810109236E1,3.304778337E-1,1.509141445E0,1.660788655E-1
2.812055621E1,-6.597339362E-2,1.058781385E0,1.344666034E-1
2.814002006E1,-2.504545450E-1,4.343248606E-1,2.527453005E-2
2.815948392E1,-3.949240744E-1,5.991056561E-1,8.743002266E-2
2.817894777E1,-5.493201613E-1,8.634573817E-1,2.126573026E-1
2.819841163E1,-5.707004070E-1,1.155603409E0,2.674824297E-1
2.821787548E1,-5.062541962E-1,1.252730966E0,2.131154537E-1
2.823733933E1,-3.266599476E-1,9.465349913E-1,1.625663936E-1
2.825680319E1,-1.513417512E-1,9.668462276E-1,1.066722646E-1
2.827626704E1,-2.855792828E-2,9.740238786E-1,2.328922041E-2
2.829573090E1,-3.711003438E-2,6.750055552E-1,-6.268999726E-2
2.831519475E1,-7.925970852E-2,1.191186346E-2,-1.338557452E-1
2.833465860E1,-6.856957078E-2,-6.640099883E-1,-1.445458829E-1
2.835412246E1,-8.063415438E-2,-9.408844709E-1,-5.948295817E-2
2.837358631E1,-4.352411628E-2,-1.073442101E0,-3.962985426E-2
2.839305017E1,8.063415438E-2,-1.172096848E0,-6.238456443E-2
2.841251402E1,2.477056682E-1,-1.204319954E0,-1.324812919E-1
2.843197788E1,3.975202441E-1,-1.238833785E0,-1.692859083E-1
2.845144173E1,4.543306828E-1,-1.360701323E0,-1.477529258E-1
2.847090558E1,3.889681399E-1,-1.718820810E0,-1.503490955E-1
2.849036944E1,4.659371078E-1,-1.753640056E0,2.763399482E-1
2.850983329E1,-1.800523996E-1,-2.794553757E0,1.311450362E0
2.852929715E1,-4.778489769E-1,-1.808465123E0,-1.369100660E-1
2.854876100E1,-1.313359290E-2,2.490648508E0,-6.659189463E-1
2.856822486E1,2.907716334E-1,2.605185509E0,-3.508654535E-1
2.858768871E1,5.025889874E-1,1.609323263E0,-7.582359016E-2
2.860715256E1,4.085158110E-1,1.227074623E0,-5.031998456E-2
2.862661642E1,1.850920320E-1,1.481805205E0,-3.443750367E-2
2.864608027E1,5.818486959E-2,1.583056092E0,-6.146826968E-2
2.866554413E1,9.666935354E-2,1.480430841E0,-4.115701467E-2
2.868500798E1,3.132209182E-1,1.039386392E0,7.429642975E-2
2.870447183E1,4.465421438E-1,8.582650423E-1,1.175151095E-1
2.872393569E1,3.918697536E-1,1.182176113E0,-4.069886729E-2
2.874339954E1,1.611155868E-1,1.094822407E0,-1.880699992E-1
2.876286350E1,-2.321286127E-2,3.758345544E-1,-1.570686102E-1
2.878232736E1,4.123337101E-3,-3.065013885E-1,-8.086322248E-2
2.880179121E1,1.101083755E-1,-8.938478827E-1,4.810560029E-3
2.882125506E1,5.711585656E-2,-1.317482591E0,7.002037764E-2
2.884071892E1,-1.333212405E-1,-1.542280793E0,5.673406646E-2
2.886018277E1,-3.207040131E-1,-1.553887248E0,1.565340906E-2
2.887964663E1,-4.630354941E-1,-1.329241753E0,1.412624773E-2
2.889911048E1,-4.509709179E-1,-9.830341339E-1,-3.894262947E-3
2.891857433E1,-1.820377111E-1,-9.686788321E-1,-5.413788930E-2
2.893803819E1,9.468403645E-3,-2.593426466E0,-9.705114365E-2
2.895750204E1,8.118392825E-1,-3.448331594E0,4.927388132E-1
2.897696590E1,1.028696299E0,4.689914286E-1,-3.627009690E-2
2.899642975E1,1.653916389E-1,2.662759542E0,-5.043452382E-1
2.901589361E1,-3.657552898E-1,2.012952089E0,-1.411861181E-1
2.903535746E1,-5.852084756E-1,8.775072694E-1,9.842558950E-2
2.905482131E1,-5.824595690E-1,5.093085170E-1,1.963166744E-1
2.907428517E1,-5.273290277E-1,6.794343591E-1,2.007454336E-1
2.909374902E1,-3.958403766E-1,9.421061873E-1,1.419496983E-1
2.911321298E1,-2.492328286E-1,1.047022223E0,4.100430012E-2
2.913267683E1,-1.566868126E-1,9.425643682E-1,-8.849903196E-2
2.915214069E1,-3.955349326E-2,8.923207521E-1,-8.865175396E-2
2.917160454E1,1.039997265E-1,5.221366882E-1,-7.658717036E-2
2.919106840E1,1.246164143E-1,-1.892153621E-1,-6.177370250E-2
2.921053225E1,9.758564830E-2,-7.476984859E-1,-1.077412739E-1
2.922999610E1,1.177441850E-1,-9.086613655E-1,-1.578321904E-1
2.924945996E1,1.282816082E-1,-1.002123713E0,-1.937204897E-1
2.926892381E1,8.231402934E-2,-1.091157198E0,-2.289979309E-1
2.928838767E1,6.643154472E-2,-1.145524144E0,-2.629009187E-1
2.930785152E1,9.544762224E-2,-1.100320220E0,-2.864192128E-1
2.932731538E1,5.375609919E-2,-9.882264733E-1,-2.574031353E-1
2.934677923E1,3.741546720E-2,-1.125671029E0,-3.367391974E-2
2.936624308E1,-5.181660652E-1,-1.749058604E0,1.983019859E-1
2.938570694E1,-1.608712435E0,-3.619221210E0,-6.436987966E-2
2.940517079E1,-1.464548260E-1,-5.603157282E-1,5.597048625E-2
2.942463465E1,-2.145662606E-1,3.145342827E0,2.239582986E-1
2.944409850E1,-2.134972364E-1,3.087157965E0,4.640281498E-1
2.946356246E1,1.287397593E-1,1.743255377E0,4.699840844E-1
2.948302631E1,2.788597643E-1,1.032361507E0,4.004982114E-1
2.950249017E1,2.935205400E-1,8.856012225E-1,3.812559843E-1
2.952195402E1,3.164279461E-1,8.222240210E-1,2.888626754E-1
2.954141788E1,2.423606068E-1,9.392045736E-1,1.083521396E-1
2.956088173E1,7.147117704E-2,1.102610946E0,-2.977965865E-3
2.958034558E1,-1.401934624E-1,1.322369576E0,-1.298851222E-1
2.959980944E1,-3.425424397E-1,1.337946534E0,-2.625955045E-1
2.961927329E1,-3.707949221E-1,9.262236953E-1,-2.070067972E-1
2.963873715E1,-1.244636998E-1,2.353356630E-1,-8.284853399E-2
2.965820100E1,1.685986817E-1,-3.959930837E-1,-4.046979360E-3
2.967766486E1,3.312414289E-1,-8.773545623E-1,8.880446851E-2
2.969712871E1,3.969093859E-1,-1.198822141E0,1.028543562E-1
2.971659267E1,3.779725730E-1,-1.506392598E0,7.307469845E-2
2.973605652E1,2.200640440E-1,-1.581834316E0,9.949459881E-2
2.975552038E1,-3.878991306E-2,-1.715461016E0,1.505018175E-1
2.977498423E1,-5.451968312E-1,-1.764177442E0,2.094502598E-1
2.979444808E1,-7.279980779E-1,-2.651763916E0,4.056905806E-1
2.981391194E1,5.572614074E-1,-8.877392411E-1,5.562687516E-1
2.983337579E1,4.786125422E-1,1.996764302E0,-3.168861195E-2
2.985283965E1,2.718348242E-2,1.886503100E0,-9.033162892E-2
2.987230350E1,-1.403461844E-1,8.662062287E-1,-2.313650399E-2
2.989176746E1,7.727439702E-2,8.203914165E-1,7.383827865E-2
2.991123131E1,1.191186346E-2,1.097265840E0,-5.268708803E-3
2.993069517E1,-1.589775532E-1,1.361312151E0,2.061668551E-3
2.995015902E1,-2.139553875E-1,1.445916891E0,-3.741546767E-3
2.996962288E1,-7.009673119E-2,1.303738117E0,4.810560029E-3
2.998908673E1,8.659008145E-2,1.531132579E0,-2.649625950E-2
3.000855058E1,2.081521749E-1,1.457828760E0,-1.790597439E-1
3.002801444E1,1.945604384E-1,7.796161771E-1,-2.135736048E-1
3.004747863E1,2.634354234E-1,-6.230820715E-2,-2.337321341E-1
3.006694249E1,3.072649837E-1,-6.791289449E-1,-2.545015514E-1
3.008640634E1,2.974911332E-1,-8.935424685E-1,-2.215148360E-1
3.010587020E1,2.457203567E-1,-1.054505348E0,-2.187659442E-1
3.012533405E1,1.640172005E-1,-1.099251151E0,-2.235001475E-1
3.014479801E1,1.139262840E-1,-1.120631456E0,-1.355356276E-1
3.016426186E1,1.824958473E-1,-1.234099627E0,-2.084576152E-2
3.018372572E1,3.042106628E-1,-1.219896913E0,1.202640012E-1
3.020318957E1,1.580612659E-1,-1.389411926E0,1.515708268E-1
3.022265343E1,-4.098902643E-1,-2.116646528E0,7.017309219E-2
3.024211728E1,-1.406821609E0,-3.467573881E0,1.188895553E-1
3.026158113E1,-6.860011220E-1,-2.032347202E0,-7.704532146E-2
3.028104499E1,1.435532235E-2,2.221562386E0,-7.276926935E-2
3.030050884E1,-3.558287397E-2,3.293172121E0,1.683696061E-1
3.031997280E1,-7.742711157E-2,2.074496746E0,1.807396114E-1
3.033943666E1,-9.529490769E-2,1.081383348E0,1.766162813E-1
3.035890051E1,-2.116646469E-1,8.032872081E-1,1.428660005E-1
3.037836436E1,-2.900080681E-1,7.527381182E-1,2.030361742E-1
3.039782822E1,-2.510654330E-1,7.496837974E-1,2.260963321E-1
3.041729207E1,-9.544762224E-2,6.290380359E-1,1.963166744E-1
3.043675593E1,6.078104675E-2,7.275399566E-1,1.075885594E-1
3.045621978E1,6.582067907E-2,7.350230217E-1,-8.254310489E-2
3.047568363E1,2.535088919E-2,4.204276800E-1,-1.934150606E-1
3.049514749E1,1.979201883E-1,-4.612028971E-2,-1.343138963E-1
3.051461145E1,4.069886506E-1,-4.101957083E-1,-2.344193682E-2
3.053407530E1,5.280926228E-1,-7.157807946E-1,4.421133921E-2
3.055353916E1,5.398517251E-1,-8.787289858E-1,6.223184988E-2
3.057300301E1,5.270236135E-1,-9.120211005E-1,7.444914430E-2
3.059246686E1,4.616610706E-1,-7.628173828E-1,1.065195426E-1
3.061193072E1,2.269362658E-1,-6.944005489E-1,1.285106838E-1
3.063139457E1,3.726275265E-2,-7.018836141E-1,9.842558950E-2
3.065085843E1,-4.996874034E-1,-1.896429658E0,-7.215840369E-2
3.067032238E1,-7.284562588E-1,-3.290423155E0,-2.893971838E-2
3.068978624E1,3.642281294E-1,-2.663370371E-1,6.963095069E-1
3.070925009E1,2.316704690E-1,2.570977211E0,9.934188426E-2
3.072871395E1,-3.213148713E-1,2.157879829E0,-6.314814836E-2
3.074817780E1,-4.709767401E-1,1.107497811E0,2.451094985E-2
3.076764166E1,-8.109229803E-2,9.706641436E-1,1.031597927E-1
3.078710551E1,3.100138716E-2,1.088255644E0,1.112537459E-1
3.080656947E1,-8.460476995E-2,1.337793827E0,7.536543906E-2
3.082603332E1,-1.872300506E-1,1.435226798E0,5.566505343E-2
3.084549718E1,-2.973384261E-1,1.390939116E0,3.688096255E-2
3.086496103E1,-3.750709891E-1,1.364366531E0,-3.901898861E-2
3.088442488E1,-3.724747896E-1,8.310815096E-1,-1.295796931E-1
3.090388874E1,-2.637408674E-1,-1.241582632E-1,-1.127809063E-1
3.092335259E1,-6.872228533E-2,-8.243620396E-1,-1.721875072E-1
3.094281645E1,1.360701323E-1,-1.058017850E0,-1.840993762E-1
3.096228030E1,2.509126961E-1,-1.181412458E0,-1.845575273E-1
3.098174426E1,2.779434621E-1,-1.123227596E0,-2.192240953E-1
3.100120811E1,2.092211843E-1,-9.048434496E-1,-2.389244884E-1
3.102067197E1,1.395826042E-1,-6.473639607E-1,-2.377027571E-1
3.104013582E1,1.907425225E-1,-5.900954008E-1,-2.619846463E-1
3.105959968E1,1.444695145E-1,-5.758927464E-1,-3.249036968E-1
3.107906353E1,6.414080411E-2,-9.349285364E-1,-2.932914495E-1
3.109852738E1,-3.191768527E-1,-1.567479014E0,-2.238055766E-1
3.111799124E1,-2.047924280E0,-3.566992044E0,-9.243147969E-1
3.113745520E1,-3.918697536E-1,-3.801869631E0,-4.180605710E-1
3.115691905E1,2.997818887E-1,2.266002893E0,1.396589577E-1
3.117638290E1,-2.417497337E-1,3.916406870E0,1.387426704E-1
3.119584676E1,-1.843284518E-1,2.357327223E0,3.153589368E-2
3.121531061E1,6.368265301E-2,7.515164018E-1,1.405752599E-1
3.123477447E1,2.884808779E-1,7.551816106E-1,2.314413935E-1
3.125423843E1,4.485274553E-1,9.440914989E-1,1.711184978E-1
3.127370228E1,4.725039005E-1,1.180954337E0,6.498073786E-2
3.129316613E1,2.797760665E-1,1.294422507E0,-8.475748822E-3
3.131262999E1,-2.489273995E-2,1.347873092E0,-1.016326249E-1
3.133209384E1,-1.670715213E-1,1.390022755E0,-2.410625070E-1
3.135155770E1,-7.238747925E-2,6.525563002E-1,-2.877936661E-1
3.137102155E1,2.054032832E-1,-4.407389462E-1,-1.579848975E-1
3.139048541E1,4.401280880E-1,-9.899063706E-1,-1.454621702E-1
3.140994936E1,5.338957906E-1,-1.246622324E0,-1.527925581E-1
3.142941322E1,3.738492429E-1,-1.193477035E0,-1.222493127E-1
3.144887707E1,6.918043643E-2,-9.246965647E-1,-5.108356848E-2
3.146834093E1,1.679878123E-2,-1.195920467E0,-1.712712198E-1
3.148780478E1,-5.555815101E-1,-1.583056092E0,-1.895971596E-1
3.150726863E1,-9.013310075E-1,-9.257655740E-1,4.955640435E-2
3.152673259E1,-7.912226319E-1,-1.220202446E0,-1.999818534E-1
3.154619645E1,5.713112950E-1,-2.840063095E0,4.768563211E-1
3.156566030E1,7.718276381E-1,-5.975784659E-1,5.674170256E-1
3.158512416E1,2.733619884E-2,1.563661098E0,1.993709952E-1
3.160458801E1,-3.379609287E-1,1.088561058E0,2.561814189E-1
3.162405186E1,-1.146898642E-1,7.429642677E-1,3.085630834E-1
3.164351582E1,-3.313941509E-2,6.447677612E-1,3.377318680E-1
3.166297968E1,1.557705179E-2,6.837103963E-1,3.134499788E-1
3.168244353E1,1.427896470E-1,8.689551353E-1,1.879172772E-1
3.170190738E1,3.118464649E-1,8.384119272E-1,8.544471115E-2
3.172137124E1,3.827067912E-1,9.601266980E-1,-3.947713599E-2
3.174083509E1,4.266890585E-1,1.061530232E0,-1.022434905E-1
3.176029895E1,4.363101721E-1,8.910989761E-1,-1.744782478E-1
3.177976291E1,4.066832364E-1,1.501200199E-1,-1.245400533E-1
3.179922676E1,4.118755758E-1,-6.117810607E-1,-7.521272451E-2
3.181869061E1,4.332558513E-1,-9.828814268E-1,-2.756527252E-2
3.183815447E1,3.805687428E-1,-1.152091026E0,2.832885459E-2
3.185761832E1,2.261726856E-1,-1.113453746E0,-1.595884189E-2
3.187708218E1,-6.200277433E-2,-8.996511102E-1,-6.879864633E-2
3.189654603E1,-3.601047993E-1,-4.352411628E-1,-1.298087649E-3
3.191600999E1,-5.697841048E-1,-2.528980076E-1,3.130682046E-3
3.193547384E1,-5.381718874E-1,-4.265363216E-1,1.265253723E-1
3.195493770E1,-4.199695289E-1,-1.039080977E0,1.876118481E-1
3.197440155E1,-2.643517256E-1,-1.775478482E0,2.609156072E-1
3.199386540E1,-5.700895786E-1,-1.153312683E0,3.551415205E-1
3.201332926E1,-1.335808516E0,-3.932671070E0,-3.913352489E-1
3.203279322E1,4.671588540E-1,-1.099556610E-1,7.459422350E-1
3.205225707E1,-9.056070447E-2,3.631896496E0,4.373028278E-1
3.207172093E1,-7.460185885E-1,3.357770920E0,2.149480432E-1
3.209118478E1,-6.873756051E-1,1.522580504E0,1.198822167E-2
3.211064863E1,-3.611738086E-1,9.031635523E-1,-2.290742996E-4
3.213011249E1,-3.604102135E-2,7.588467598E-1,1.145371469E-3
3.214957645E1,2.173151523E-1,6.146826744E-1,4.696023092E-2
3.216904030E1,2.290742993E-1,4.189005196E-1,1.246927753E-1
3.218850416E1,1.450803876E-2,6.429351568E-1,1.801287532E-1
3.220796801E1,-2.176205814E-1,8.539889455E-1,1.821140647E-1
3.222743186E1,-2.652680278E-1,6.537780166E-1,1.714239269E-1
3.224689572E1,-5.787943676E-2,-1.267544460E-2,1.708130687E-1
3.226635968E1,2.547306120E-1,-5.204567909E-1,8.193223923E-2
3.228582353E1,4.841103256E-1,-8.965967894E-1,7.108938694E-2
3.230528738E1,5.557342172E-1,-1.129183531E0,1.007163301E-1
3.232475124E1,5.827649832E-1,-1.121853113E0,1.146135032E-1
3.234421509E1,6.795870662E-1,-7.881683111E-1,2.128100246E-1
3.236367895E1,7.777835727E-1,-4.248564541E-1,3.236819804E-1
3.238314280E1,8.031344414E-1,-4.718930274E-2,4.273762703E-1
3.240260676E1,5.522217751E-1,-1.527161989E-2,3.358992636E-1
3.242207061E1,-3.452913165E-1,-1.696982384E0,-5.466476083E-1
3.244153447E1,-1.351538301E-1,-2.283870697E0,-2.161697745E-1
3.246099832E1,2.356410921E-1,4.158461988E-1,3.932442144E-2
3.248046228E1,2.028071135E-1,1.905439973E0,-1.555414498E-1
3.249992613E1,1.872300506E-1,2.145357132E0,-3.606393039E-1
3.251938999E1,1.223256737E-1,1.131626964E0,-3.743837476E-1
3.253885384E1,5.803215317E-3,1.679878123E-2,-2.030361742E-1
3.255831770E1,-1.673769504E-1,-2.944368124E-1,-6.177370250E-2
3.257778166E1,-1.533270627E-1,-7.406735420E-2,3.184132650E-2
3.259724551E1,1.244636998E-1,-2.046396956E-2,1.240819097E-1
3.261670936E1,3.714057803E-1,-1.974620372E-1,1.741728187E-1
3.263617322E1,3.634645343E-1,-3.619373739E-1,1.414915472E-1
3.265563707E1,1.739437431E-1,-6.867647171E-1,8.590286225E-2
3.267510093E1,-1.817322709E-2,-1.211650252E0,4.757109284E-2
3.269456488E1,-5.543597788E-2,-1.800218463E0,-5.108356848E-2
3.271402874E1,6.017018110E-2,-2.317010164E0,-1.402698308E-1
3.273349259E1,2.921460867E-1,-2.839757681E0,1.297324002E-1
3.275295645E1,6.600393653E-1,-1.001360059E0,2.120464295E-1
3.277242030E1,6.417134404E-1,1.294422507E0,-8.399390499E-4
3.279188426E1,4.424188137E-1,1.989128470E0,-5.581776798E-2
3.281134811E1,2.299905866E-1,1.688124776E0,-3.138317913E-2
3.283081197E1,3.970621154E-2,9.162971973E-1,-1.718057133E-2
3.285027582E1,-1.261435747E-1,2.295324355E-1,-5.230529606E-2
3.286973968E1,-2.243400961E-1,-1.988364905E-1,-7.032580674E-2
3.288920363E1,-2.026543915E-1,-5.218312144E-1,-4.680751264E-2
3.290866749E1,-1.379027218E-1,-8.761327863E-1,-1.886045001E-2
3.292813134E1,-5.192350596E-2,-1.091462612E0,2.084576152E-2
3.294759520E1,4.153880477E-2,-1.068402529E0,2.832885459E-2
3.296705905E1,1.328630894E-1,-5.907062292E-1,-5.337430909E-2
3.298652301E1,2.573267817E-1,2.629773021E-1,-7.322741300E-2
3.300598686E1,3.790415823E-1,8.706350327E-1,-2.527453005E-2
3.302545072E1,3.927860558E-1,9.537126422E-1,2.710712515E-2
3.304491457E1,3.060432673E-1,7.706059217E-1,5.597048625E-2
3.306437843E1,1.841757298E-1,5.154171586E-1,2.878700197E-2
3.308384238E1,9.162971377E-2,2.637408674E-1,-2.267835476E-2
3.310330624E1,5.360338464E-2,5.650499091E-2,-5.902481079E-2
3.312277009E1,3.451386094E-2,-7.513637096E-2,-5.902481079E-2
3.314223395E1,3.191768378E-2,-1.504254490E-1,-3.520108387E-2
3.316169791E1,7.192932814E-2,-1.646280587E-1,-2.008217946E-2
3.318116176E1,1.563813835E-1,-3.955349326E-2,-2.367100911E-3
3.320062561E1,2.295324355E-1,1.725693047E-1,-1.656970754E-2
3.322008947E1,2.683223486E-1,3.152062297E-1,-3.901898861E-2
3.323955332E1,2.609919906E-1,3.287979662E-1,-6.085740402E-2
3.325901728E1,2.115119249E-1,2.390008420E-1,-7.521272451E-2
3.327848113E1,1.463021189E-1,1.149952933E-1,-7.765618712E-2
3.329794499E1,1.059850380E-1,1.237001177E-2,-7.643445581E-2
3.331740884E1,1.065959036E-1,-4.153880477E-2,-7.689260691E-2
3.333687280E1,1.449276656E-1,-4.352411628E-2,-6.788235158E-2
3.335633666E1,1.954767257E-1,-9.773836471E-3,-5.551233515E-2
3.337580051E1,2.373209596E-1,2.611446939E-2,-5.688678101E-2
3.339526436E1,2.671006322E-1,4.291325063E-2,-6.620246917E-2
3.341472832E1,2.805396616E-1,3.863719851E-2,-6.711876392E-2
3.343419218E1,2.730565667E-1,2.779434808E-2,-4.833467677E-2
3.345365603E1,2.377791107E-1,1.847865991E-2,-2.787070535E-2
3.347311988E1,1.959348768E-1,-1.740964688E-2,-2.374736778E-2
3.349258384E1,1.440113783E-1,-5.787943676E-2,-3.168861195E-2
3.351204770E1,1.128572673E-1,-6.566796452E-2,-3.886627033E-2
3.353151155E1,1.102610901E-1,-5.314523727E-2,-3.565923125E-2
3.355097540E1,1.266017258E-1,-2.916879393E-2,-2.725984156E-2
3.357043926E1,1.233946830E-1,3.359756200E-3,-1.962403022E-2
3.358990322E1,9.330959618E-2,2.886336111E-2,-2.176205814E-2
3.360936707E1,5.757400393E-2,3.252854943E-2,-2.130390890E-2
3.362883093E1,3.512472659E-2,3.756818548E-2,-1.855501719E-2
3.364829478E1,2.458730713E-2,3.497200832E-2,-1.473711245E-2
3.366775874E1,1.389717404E-2,2.443459118E-3,-1.443168055E-2
3.368722259E1,-7.941242307E-3,-3.420842811E-2,-1.580612548E-2
3.370668645E1,-2.779434808E-2,-5.009091273E-2,-1.809686981E-2
3.372615030E1,-3.924806044E-2,-5.177079141E-2,-2.328922041E-2
3.374561426E1,-4.321868345E-2,-5.253437161E-2,-2.863428742E-2
3.376507811E1,-3.772090003E-2,-4.825831577E-2,-3.275762498E-2
3.378454197E1,-3.436114267E-2,-4.092793912E-2,-3.214675933E-2
3.380400582E1,-3.436114267E-2,-3.512472659E-2,-3.184132650E-2
3.382346978E1,-4.108065739E-2,-1.053741761E-2,-3.153589368E-2
3.384293363E1,-4.444041103E-2,2.214384824E-2,-2.512181364E-2
3.386239749E1,-5.024362728E-2,3.145953640E-2,-1.320995111E-2
3.388186134E1,-6.383536756E-2,9.010255337E-3,-2.038761228E-2
3.390132530E1,-6.490438432E-2,-1.328630932E-2,-4.360047355E-2
3.392078916E1,-3.588830680E-2,-3.787361458E-2,-6.375901401E-2
3.394025301E1,2.000582218E-2,-4.260781780E-2,-6.986765563E-2
3.395971686E1,5.558869615E-2,-1.206457894E-2,-7.521272451E-2
3.397918082E1,6.337722391E-2,4.306596518E-2,-8.361211419E-2
3.399864468E1,4.321868345E-2,8.933897316E-2,-9.903645515E-2
3.401810853E1,4.428769462E-3,1.214093715E-1,-1.164461002E-1
3.403757238E1,-2.703076601E-2,1.440113783E-1,-1.233183295E-1
3.405703634E1,-5.131264031E-2,1.614210159E-1,-1.144607887E-1
3.407650020E1,-8.704823256E-2,1.638644785E-1,-1.048396677E-1
3.409596405E1,-1.195767820E-1,1.404989064E-1,-9.980003536E-2
3.411542791E1,-1.055268943E-1,8.078686893E-2,-8.712458611E-2
3.413489186E1,-5.696314201E-2,2.031125315E-2,-6.635518372E-2
3.415435572E1,-8.246674202E-3,-8.399390616E-3,-5.047270283E-2
3.417381957E1,1.145371422E-2,-6.261364091E-3,-4.528035223E-2
3.419328343E1,-6.719512399E-3,1.970038936E-2,-4.848739132E-2
3.421274728E1,-5.589412898E-2,7.544180006E-2,-5.230529606E-2
3.423221124E1,-1.003345400E-1,1.345429718E-1,-5.031998456E-2
3.425167509E1,-1.241582632E-1,1.710421443E-1,-4.069886729E-2
3.427113895E1,-1.438586563E-1,1.908952445E-1,-3.199404106E-2
3.429060280E1,-1.530216336E-1,1.860083193E-1,-3.550651670E-2
3.431006676E1,-1.493564397E-1,1.525634825E-1,-5.306887627E-2
3.432953061E1,-1.392771751E-1,1.279761642E-1,-7.063124329E-2
3.434899447E1,-1.291978955E-1,1.204930767E-1,-7.261654735E-2
3.436845832E1,-1.229365394E-1,1.046105921E-1,-4.787652567E-2
3.438792228E1,-1.233946830E-1,1.052214578E-1,3.817904799E-4
3.440738613E1,-1.189659163E-1,1.351538301E-1,4.925097153E-2
3.442684999E1,-9.132428467E-2,1.547015011E-1,8.605557680E-2
3.444631384E1,-6.750056148E-2,1.605047137E-1,9.231694043E-2
3.446577780E1,-6.734783947E-2,1.748600453E-1,5.887209252E-2
3.448524166E1,-9.941824526E-2,1.809686869E-1,1.015562657E-2
3.450470551E1,-1.401934624E-1,1.574503928E-1,-2.191477455E-2
3.452416936E1,-1.945604384E-1,8.384118974E-2,-2.985601686E-2
3.454363332E1,-2.544251680E-1,-2.290742937E-3,-1.656970754E-2
3.456309718E1,-3.124573231E-1,-8.842267841E-2,-5.574141163E-3
3.458256103E1,-3.484983444E-1,-1.403461844E-1,-2.206749097E-2
3.460202488E1,-3.495673835E-1,-1.140789986E-1,-6.116283685E-2
3.462148884E1,-3.141372204E-1,-1.374445762E-2,-1.056032479E-1
3.464095270E1,-2.528980076E-1,9.239330143E-2,-1.500436664E-1
3.466041655E1,-1.846338809E-1,1.820377111E-1,-1.598175019E-1
3.467988040E1,-1.452330947E-1,2.220493406E-1,-1.329394430E-1
3.469934436E1,-1.765399277E-1,2.127336562E-1,-1.114064679E-1
3.471880822E1,-2.700022459E-1,1.806632578E-1,-8.208495378E-2
3.473827207E1,-3.904953003E-1,1.970038861E-1,-3.657552972E-2
3.475773593E1,-5.219839811E-1,2.631300092E-1,-9.926552884E-4
3.477719978E1,-6.255255342E-1,3.365865052E-1,1.611155830E-2
3.479666374E1,-6.685914993E-1,3.558287323E-1,2.176205814E-2
3.481612759E1,-6.597339511E-1,3.095557392E-1,2.496909723E-2
3.483559145E1,-6.006327868E-1,2.353356630E-1,2.817613818E-2
3.485505540E1,-5.109884143E-1,1.779143661E-1,3.046688065E-2
3.487451926E1,-4.195113778E-1,1.443168074E-1,4.810560029E-3
3.489398311E1,-3.237583339E-1,1.655443609E-1,-2.130390890E-2
3.491344697E1,-2.237292230E-1,1.783725172E-1,-2.649625950E-2
3.493291093E1,-1.192713454E-1,1.745546162E-1,-3.718639165E-2
3.495237478E1,-1.817322709E-2,1.649334878E-1,-6.589704007E-2
3.497183863E1,7.941242307E-2,1.255327165E-1,-1.043815166E-1
3.499130249E1,1.634063274E-1,7.849612087E-2,-1.285106838E-1
3.501076645E1,1.947131455E-1,6.093376130E-2,-1.321758628E-1
3.503023030E1,1.739437431E-1,7.009673119E-2,-1.030070707E-1
3.504969416E1,1.443168074E-1,1.160643101E-1,-5.795579776E-2
3.506915811E1,1.096502244E-1,1.478292793E-1,-2.573267929E-2
3.508862197E1,6.795870513E-2,1.291978955E-1,1.091920771E-2
3.510808582E1,1.298087649E-2,6.872228533E-2,4.176788032E-2
3.512754968E1,-3.817904741E-2,6.872228533E-2,6.162098423E-2
3.514701363E1,-5.604684353E-2,1.262962967E-1,6.452259421E-2
3.516647749E1,-4.474584386E-2,1.811214089E-1,4.864010960E-2
3.518594134E1,-2.428187430E-2,1.899789423E-1,2.054032870E-2
3.520540520E1,-1.313359290E-2,1.669187993E-1,1.779143699E-2
3.522486916E1,-7.788525894E-3,1.629481763E-1,4.130972922E-2
3.524433301E1,-1.847865991E-2,1.966984570E-1,6.940951198E-2
3.526379686E1,-3.268126398E-2,2.292270064E-1,7.857248187E-2
3.528326072E1,-2.871064469E-2,2.218966335E-1,6.895136088E-2
3.530272468E1,-3.512472380E-3,1.649334878E-1,4.604393244E-2
3.532218853E1,2.993237413E-2,6.841685623E-2,2.054032870E-2
3.534165238E1,5.604684353E-2,-1.863137633E-2,1.298087649E-3
3.536111634E1,8.399390429E-2,-7.498364896E-2,-6.032289471E-3
3.538058020E1,1.026252806E-1,-1.148425788E-1,-1.748600416E-2
3.540004405E1,9.208786488E-2,-1.501200199E-1,-6.543888897E-2
3.541950790E1,7.773254067E-2,-1.721111536E-1,-1.230128929E-1
3.543897186E1,7.910698652E-2,-1.463021189E-1,-1.543197185E-1
3.545843572E1,7.223475724E-2,-1.085812151E-1,-1.436295807E-1
3.547789957E1,7.009673119E-2,-8.231402934E-2,-1.065195426E-1
3.549736343E1,7.452550530E-2,-8.903354406E-2,-6.314814836E-2
3.551682738E1,6.704241037E-2,-1.163697392E-1,-2.405280061E-2
3.553629124E1,5.543597788E-2,-1.525634825E-1,-5.726857111E-3
3.555575509E1,3.680460155E-2,-1.971566081E-1,3.817904799E-4
3.557521905E1,2.428187430E-2,-2.284634262E-1,5.574141163E-3
3.559468290E1,4.734201822E-3,-2.472475171E-1,1.794415340E-2
3.561414676E1,-2.519817278E-2,-2.716821134E-1,4.069886729E-2
3.563361061E1,-8.338304609E-2,-3.150535226E-1,6.879864633E-2
3.565307457E1,-1.521053314E-1,-3.399462402E-1,1.039233729E-1
3.567253843E1,-1.861610413E-1,-3.037525117E-1,1.445458829E-1
3.569200228E1,-1.811214089E-1,-2.324340492E-1,1.720348001E-1
3.571146613E1,-1.580612659E-1,-1.553123742E-1,1.784488708E-1
3.573093009E1,-8.994983882E-2,-1.284343153E-1,1.755472720E-1
3.575039395E1,3.527744114E-2,-1.708894223E-1,1.989128441E-1
3.576985780E1,1.380554438E-1,-2.357937992E-1,2.432005405E-1
3.578932176E1,1.818849891E-1,-2.611446977E-1,2.818377316E-1
3.580878561E1,1.737910360E-1,-2.559523284E-1,3.096320927E-1
3.582824947E1,1.006399691E-1,-2.448040545E-1,3.250564337E-1
3.584771343E1,-4.474584386E-2,-2.422078848E-1,3.378845751E-1
3.586717728E1,-2.090684772E-1,-2.765690386E-1,3.430769444E-1
3.588664113E1,-3.451386094E-1,-3.300196826E-1,3.381900191E-1
3.590610499E1,-4.225656986E-1,-3.666715920E-1,3.348302543E-1
3.592556895E1,-3.894262910E-1,-4.233292937E-1,3.087157905E-1
3.594503280E1,-3.089448512E-1,-4.964803457E-1,2.402989268E-1
3.596449666E1,-2.394589931E-1,-5.209149122E-1,1.431714296E-1
3.598396051E1,-2.031125426E-1,-5.002982616E-1,3.978256881E-2
3.600342447E1,-2.121227980E-1,-4.066832364E-1,-1.611155830E-2
3.602288832E1,-2.403752953E-1,-2.191477418E-1,-4.352411721E-3
3.604235218E1,-1.965457499E-1,1.014035568E-1,5.994110554E-2
3.606181613E1,-4.398226365E-2,4.046979249E-1,1.224020272E-1
3.608127999E1,1.067486182E-1,5.180133581E-1,1.265253723E-1
3.610074384E1,2.296851575E-1,4.540252388E-1,8.529199660E-2
3.612020770E1,3.274235129E-1,2.996291816E-1,1.351538301E-2
3.613967166E1,4.181369543E-1,1.453858167E-1,-7.444914430E-2
3.615913551E1,4.888445437E-1,2.718348242E-2,-1.630245447E-1
3.617859936E1,5.539016128E-1,-4.550942779E-2,-2.303723842E-1
3.619806332E1,6.200277805E-1,-7.330377400E-2,-2.667188346E-1
3.621752718E1,7.096721530E-1,-2.199113183E-2,-2.633590698E-1
3.623699103E1,8.455895782E-1,9.132428467E-2,-2.348011434E-1
3.625645488E1,9.656245112E-1,2.252563834E-1,-2.054796368E-1
3.627591884E1,1.029612541E0,3.506363928E-1,-2.172387838E-1
3.629538270E1,1.052672744E0,3.955349326E-1,-2.578612864E-1
3.631484655E1,1.039080977E0,3.590357602E-1,-2.989419401E-1
3.633431051E1,1.012202978E0,2.919933498E-1,-3.220020831E-1
3.635377436E1,1.011286616E0,2.005163580E-1,-2.813795805E-1
3.637323822E1,1.019380569E0,7.849612087E-2,-1.630245447E-1
3.639270207E1,1.030223489E0,-1.282816008E-2,-2.619082667E-2
3.641216603E1,9.804379940E-1,1.298087649E-2,5.627591908E-2
3.643162988E1,8.448259830E-1,1.270598769E-1,8.743002266E-2
3.645109374E1,6.623301506E-1,2.484692484E-1,4.955640435E-2
3.647055770E1,5.132791400E-1,2.162461281E-1,-1.214093715E-2
3.649002155E1,4.355465770E-1,4.214967042E-2,-3.153589368E-2
3.650948540E1,4.218021333E-1,-1.076649204E-1,-4.810560029E-3
3.652894926E1,3.938550651E-1,-7.131846249E-2,1.137735695E-2
3.654841322E1,2.626718581E-1,9.010255337E-2,1.733328775E-2
3.656787707E1,6.108647957E-2,1.886045039E-1,4.497491941E-2
3.658734093E1,-1.007926911E-1,8.949168772E-2,8.483384550E-2
3.660680488E1,-1.869246215E-1,-1.149952933E-1,5.780307949E-2
3.662626874E1,-2.179260105E-1,-2.796233594E-1,-5.322159454E-2
3.664573259E1,-2.499964088E-1,-3.069595397E-1,-2.028834671E-1
3.666519655E1,-2.835939825E-1,-1.472184062E-1,-2.607629001E-1
3.668466040E1,-2.553414702E-1,1.064431891E-1,-2.114355713E-1
3.670412426E1,-1.725693047E-1,2.403752953E-1,-1.439350098E-1
3.672358811E1,-9.789107740E-2,2.107483447E-1,-1.222493127E-1
3.674305207E1,-8.246674389E-2,8.842267841E-2,-1.540142894E-1
3.676251593E1,-1.186604798E-1,-5.543597788E-2,-1.934150606E-1
3.678197978E1,-1.612683088E-1,-1.496618688E-1,-2.091448307E-1
3.680144374E1,-1.586721241E-1,-1.996000707E-1,-1.772271395E-1
3.682090759E1,-9.422589093E-2,-2.090684772E-1,-1.198058575E-1
3.684037145E1,-1.908952370E-2,-1.853974611E-1,-7.429642975E-2
3.685983530E1,1.511890348E-2,-1.360701323E-1,-4.986183718E-2
3.687929926E1,-1.237001177E-2,-7.925970852E-2,-2.802342176E-2
3.689876311E1,-8.261945844E-2,-3.817904741E-2,6.643154658E-3
3.691822697E1,-1.550069451E-1,-2.840521187E-2,4.421133921E-2
3.693769093E1,-2.005163580E-1,-5.131264031E-2,7.307469845E-2
3.695715478E1,-2.209803313E-1,-1.001818255E-1,9.140064567E-2
3.697661863E1,-2.269362658E-1,-1.316413581E-1,1.098793000E-1
3.699608249E1,-2.441931963E-1,-1.377500147E-1,1.278998107E-1
3.701554645E1,-2.852738500E-1,-1.536324918E-1,1.489746422E-1
3.703501030E1,-3.414734006E-1,-1.855501831E-1,1.673005968E-1
3.705447416E1,-4.176788032E-1,-1.892153621E-1,1.786015928E-1
3.707393811E1,-4.758636653E-1,-1.469129771E-1,1.827249229E-1
3.709340197E1,-5.056433082E-1,-8.506292105E-2,1.653152853E-1
3.711286582E1,-5.135845542E-1,-3.649916872E-2,1.480583549E-1
3.713232978E1,-5.050324798E-1,-2.306014486E-2,1.382845193E-1
3.715179363E1,-5.051851869E-1,-3.726275265E-2,1.398116797E-1
3.717125749E1,-5.413789153E-1,-7.742711157E-2,1.340084672E-1
3.719072134E1,-6.210967898E-1,-1.459966749E-1,9.781472385E-2
3.721018530E1,-7.061597109E-1,-2.084576041E-1,4.864010960E-2
3.722964916E1,-7.200568318E-1,-2.254091054E-1,4.115701467E-2
3.724911301E1,-6.507236958E-1,-1.583666950E-1,9.017891437E-2
3.726857697E1,-5.749764442E-1,-5.879573524E-2,1.459203213E-1
3.728804082E1,-5.395463109E-1,2.122755162E-2,1.750891209E-1
3.730750468E1,-4.960221946E-1,2.764163166E-2,1.578321904E-1
3.732696853E1,-4.127918780E-1,-6.139190868E-2,8.895718306E-2
3.734643249E1,-3.239110410E-1,-2.209803313E-1,-1.458439697E-2
3.736589634E1,-2.458730787E-1,-3.683514595E-1,-1.025489271E-1
3.738536020E1,-1.828012913E-1,-4.043924809E-1,-1.364519149E-1
3.740482416E1,-1.484401375E-1,-2.590066791E-1,-1.114064679E-1
3.742428801E1,-1.064431891E-1,-2.092211880E-2,-5.108356848E-2
3.744375186E1,-4.382954910E-2,1.437059343E-1,-5.879573524E-3
3.746321582E1,1.863137633E-2,1.913533956E-1,-2.672533505E-3
3.748267968E1,6.108647957E-2,1.256854236E-1,-1.672242396E-2
3.750214353E1,7.925970852E-2,4.108065739E-2,-4.329504073E-2
3.752160749E1,1.116355360E-1,5.971203372E-2,-5.123628303E-2
3.754107134E1,1.722638607E-1,1.310304999E-1,-3.871355578E-2
3.756053520E1,2.336557806E-1,1.795942485E-1,-1.122464053E-2
3.757999905E1,2.672533393E-1,1.896735132E-1,1.565340906E-2
3.759946301E1,2.516762912E-1,1.492037177E-1,3.016144782E-2
3.761892686E1,1.985310465E-1,7.467821985E-2,3.184132650E-2
3.763839072E1,1.426369250E-1,4.123337101E-3,2.909243479E-2
3.765785468E1,1.255327165E-1,-1.924224012E-2,3.413207084E-2
3.767731853E1,1.495091617E-1,-2.229656465E-2,3.718639165E-2
3.769678238E1,1.959348768E-1,-1.664606482E-2,1.840230078E-2
3.771624634E1,2.322813272E-1,-1.511890348E-2,-1.687514037E-2
3.773571020E1,2.444986254E-1,-2.138026757E-3,-4.528035223E-2
3.775517405E1,2.542724609E-1,2.138026804E-2,-6.055197120E-2
3.777463801E1,2.629773021E-1,6.047561392E-2,-8.361211419E-2
3.779410186E1,2.831358314E-1,7.498364896E-2,-1.001054645E-1
3.781356572E1,3.019199073E-1,4.291325063E-2,-1.100320220E-1
3.783302968E1,2.819140851E-1,3.619373962E-2,-1.152243689E-1
3.785249353E1,2.281579971E-1,9.132428467E-2,-1.123227626E-1
3.787195738E1,1.744018942E-1,1.626427472E-1,-9.460768104E-2
3.789142134E1,1.230892539E-1,2.203694731E-1,-6.268999726E-2
3.791088520E1,6.872228533E-2,2.446513474E-1,-2.420551702E-2
3.793034905E1,1.481347065E-2,2.281579971E-1,-5.726857111E-3
3.794981301E1,-5.650499370E-3,1.559232324E-1,-1.458439697E-2
3.796927686E1,-9.162971983E-4,7.452550530E-2,-1.809686981E-2
3.798874072E1,-1.679878100E-3,3.649916872E-2,-9.544761851E-3
3.800820468E1,1.328630932E-2,3.497200832E-2,2.023489587E-2
3.802766853E1,4.092793912E-2,8.032871783E-2,5.719221383E-2
3.804713238E1,5.207622424E-2,1.339320987E-1,8.880446851E-2
3.806659634E1,1.695149764E-2,1.353065521E-1,1.251509190E-1
3.808606020E1,-4.780016840E-2,1.137735620E-1,1.453094631E-1
3.810552405E1,-1.357647032E-1,9.621120244E-2,1.275943816E-1
3.812498791E1,-2.078467458E-1,7.681624591E-2,9.827287495E-2
3.814445186E1,-2.481638193E-1,4.688387364E-2,6.925679743E-2
3.816391572E1,-2.611446977E-1,4.046979174E-2,5.520690605E-2
3.818337957E1,-2.547306120E-1,9.743293375E-2,5.398517475E-2
3.820284353E1,-2.353356630E-1,1.560759544E-1,5.016727000E-2
3.822230738E1,-2.415970266E-1,1.846338809E-1,3.703367710E-2
3.824177124E1,-2.927569449E-1,1.748600453E-1,1.916588284E-2
3.826123520E1,-3.651444316E-1,1.096502244E-1,1.519526169E-2
3.828069905E1,-4.259254634E-1,2.764163166E-2,2.420551702E-2
3.830016290E1,-4.497492015E-1,-3.207040206E-2,3.550651670E-2
3.831962676E1,-4.250091612E-1,-5.650499091E-2,3.627009690E-2
3.833909072E1,-3.533852696E-1,-3.940077871E-2,2.069304511E-2
3.835855457E1,-2.695440948E-1,-1.527161949E-4,-3.894262947E-3
3.837801843E1,-2.003636509E-1,3.145953640E-2,-2.695440874E-2
3.839748238E1,-1.487455666E-1,4.459312931E-2,-5.459604040E-2
3.841694624E1,-1.038470119E-1,4.810560122E-2,-8.193223923E-2
3.843641009E1,-6.032289565E-2,4.306596518E-2,-1.019380614E-1
3.845587405E1,-3.634645417E-2,7.635809947E-3,-1.158352345E-1
3.847533790E1,-4.153880477E-2,-6.047561392E-2,-1.204167232E-1
3.849480176E1,-7.086031139E-2,-1.504254490E-1,-1.123227626E-1
3.851426572E1,-8.628465235E-2,-2.235765159E-1,-9.842558950E-2
3.853372957E1,-7.727439702E-2,-2.648098767E-1,-8.880446851E-2
3.855319343E1,-4.489856213E-2,-2.654207349E-1,-8.025235683E-2
3.857265738E1,-4.123337101E-3,-2.524398565E-1,-7.231111825E-2
3.859212124E1,4.138609022E-2,-2.318231910E-1,-7.108938694E-2
3.861158509E1,8.063415438E-2,-1.912006736E-1,-6.788235158E-2
3.863104905E1,1.206457913E-1,-1.394298822E-1,-5.642863363E-2
3.865051290E1,1.802051067E-1,-1.015562713E-1,-3.077231348E-2
3.866997676E1,2.562577724E-1,-6.795870513E-2,1.107192412E-2
3.868944072E1,3.249800503E-1,-2.046396956E-2,5.856665969E-2
3.870890457E1,3.711003661E-1,4.749473557E-2,8.391755074E-2
3.872836843E1,3.917170465E-1,1.301141977E-1,7.826705277E-2
3.874783238E1,3.813323379E-1,2.012799382E-1,5.077813566E-2
3.876729624E1,3.787361681E-1,2.690859437E-1,3.474293277E-2
3.878676009E1,4.013381600E-1,3.246746361E-1,5.062541738E-2
3.880622405E1,4.453204274E-1,3.607156575E-1,7.567087561E-2
3.882568790E1,5.105302334E-1,3.251327872E-1,8.055779338E-2
3.884515176E1,5.685623884E-1,2.454149276E-1,4.024071619E-2
