"Time (s)","Acceleration x (m/s^2)","Acceleration y (m/s^2)","Acceleration z (m/s^2)"
1.335017700E-2,9.885348320E0,3.834498227E-1,-3.619144261E-1
3.281090600E-2,9.868598938E0,3.200400174E-1,-3.469592929E-1
5.227163500E-2,9.830313683E0,3.912265003E-1,-3.194418252E-1
7.173226000E-2,9.805189133E0,5.204389095E-1,-3.188436031E-1
9.119298900E-2,9.801001549E0,6.143572330E-1,-3.152543902E-1
1.106536140E-1,9.795019150E0,5.856433511E-1,-3.684946895E-1
1.301143440E-1,9.774082184E0,4.683950245E-1,-4.432703853E-1
1.495750730E-1,9.717252731E0,4.348955154E-1,-4.342973232E-1
1.690356980E-1,9.717252731E0,5.054838061E-1,-3.361915946E-1
1.884964270E-1,9.921240807E0,6.029912829E-1,-2.763710022E-1
2.079571560E-1,9.990034103E0,5.730810165E-1,-3.834498227E-1
2.274177810E-1,9.894919395E0,5.318048596E-1,-5.306084156E-1
2.468785100E-1,9.831509590E0,5.485545993E-1,-5.832505226E-1
2.663391350E-1,9.805189133E0,6.113662124E-1,-5.132604837E-1
2.857998640E-1,9.771689415E0,6.155536175E-1,-3.409772217E-1
3.052605940E-1,9.832706451E0,4.606183469E-1,-2.763710022E-1
3.247212190E-1,9.917651176E0,2.691925466E-1,-3.302095234E-1
3.441819480E-1,9.857831001E0,3.433700502E-1,-4.779663086E-1
3.636426770E-1,9.785448074E0,5.647061467E-1,-5.449653864E-1
3.831033020E-1,9.814760208E0,6.430711150E-1,-5.294120312E-1
4.025640310E-1,9.833304405E0,5.826523304E-1,-4.624129832E-1
4.220247600E-1,9.863813400E0,4.911268353E-1,-4.366901219E-1
4.414853850E-1,9.945169449E0,4.073780477E-1,-4.564309120E-1
4.609461140E-1,9.965508461E0,3.834498227E-1,-4.815555513E-1
4.804067390E-1,9.899106979E0,4.139583111E-1,-4.612165689E-1
4.998674690E-1,9.809974670E0,4.348955154E-1,-4.881358147E-1
5.193281980E-1,9.817152977E0,4.749752879E-1,-5.042873621E-1
5.387888230E-1,9.830911636E0,4.851447940E-1,-4.899304509E-1
5.582495520E-1,9.786644936E0,4.115654826E-1,-4.797609448E-1
5.777102810E-1,9.711869240E0,3.475574851E-1,-5.228317380E-1
5.971709060E-1,9.719645500E0,3.158525825E-1,-5.359922647E-1
6.166316350E-1,9.832706451E0,3.104687333E-1,-5.629115105E-1
6.360923640E-1,9.905687332E0,3.332005441E-1,-5.706881881E-1
6.555529890E-1,9.885947227E0,3.667000830E-1,-6.143572330E-1
6.750137190E-1,9.850652695E0,3.966103494E-1,-6.406782866E-1
6.944743440E-1,9.873384476E0,4.061816335E-1,-6.448656917E-1
7.139350730E-1,9.892526627E0,3.744767308E-1,-6.418746710E-1
7.333958020E-1,9.913464546E0,3.559323549E-1,-6.394818425E-1
7.528564270E-1,9.872187614E0,3.529413342E-1,-6.711867452E-1
7.723171560E-1,9.831509590E0,3.882354796E-1,-6.400800347E-1
7.917778850E-1,9.845867157E0,4.396811724E-1,-6.113662124E-1
8.112385100E-1,9.854840279E0,4.695914388E-1,-5.635097623E-1
8.306992390E-1,9.815358162E0,4.444667995E-1,-5.216353536E-1
8.501599690E-1,9.777671814E0,3.541377485E-1,-5.330012441E-1
8.696205940E-1,9.805787086E0,3.260220885E-1,-5.647061467E-1
8.890813230E-1,9.832706451E0,4.313062727E-1,-5.730810165E-1
9.085419480E-1,9.869794846E0,5.132604837E-1,-5.144568682E-1
9.280026770E-1,9.850054741E0,4.582255483E-1,-4.839483798E-1
9.474634060E-1,9.794421196E0,4.049852192E-1,-4.923232496E-1
9.669240310E-1,9.789635658E0,4.402793646E-1,-4.899304509E-1
9.863847600E-1,9.797411919E0,5.144568682E-1,-5.078766346E-1
1.005845489E0,9.792626381E0,5.210371017E-1,-5.527420044E-1
1.025306114E0,9.850054741E0,4.642075896E-1,-5.910272002E-1
1.044766844E0,9.967302322E0,3.960121572E-1,-6.071787477E-1
1.064227573E0,1.000020409E1,4.193421602E-1,-5.449653864E-1
1.083688198E0,9.960124016E0,4.073780477E-1,-4.875376225E-1
1.103148927E0,9.940383911E0,3.595215976E-1,-4.402793646E-1
1.122609656E0,9.882357597E0,3.044866920E-1,-4.366901219E-1
1.142070281E0,9.861420631E0,3.014956415E-1,-4.899304509E-1
1.161531010E0,9.841081619E0,2.662015259E-1,-5.264210105E-1
1.180991635E0,9.881759644E0,1.884347796E-1,-5.282155871E-1
1.200452364E0,9.945169449E0,1.238285750E-1,-5.335994363E-1
1.219913094E0,9.909276962E0,1.070788130E-1,-5.156532526E-1
1.239373719E0,9.794421196E0,7.118647546E-2,-5.030909777E-1
1.258834448E0,9.695118904E0,6.640082598E-2,-5.006981492E-1
1.278295177E0,9.650253296E0,9.750752151E-2,-4.707878530E-1
1.297755802E0,9.705288887E0,2.297109663E-1,-3.750749528E-1
1.317216531E0,9.817750931E0,3.589234054E-1,-3.786641955E-1
1.336677260E0,9.946963310E0,4.025924206E-1,-4.887340367E-1
1.356137885E0,9.963713646E0,4.103690982E-1,-4.977070987E-1
1.375598614E0,9.788438797E0,4.707878530E-1,-4.540380836E-1
1.395059344E0,9.598808289E0,5.060819983E-1,-3.786641955E-1
1.414519969E0,9.683155060E0,5.090730190E-1,-4.151547253E-1
1.433980698E0,9.902696609E0,5.665007830E-1,-4.869394004E-1
1.453441427E0,9.973284721E0,6.340979934E-1,-4.839483798E-1
1.472902052E0,9.957731247E0,6.221339107E-1,-5.581258535E-1
1.492362781E0,9.917053223E0,5.365904570E-1,-4.396811724E-1
1.511823406E0,9.786644936E0,4.594219327E-1,-3.379862010E-1
1.531284135E0,9.646066666E0,4.839483798E-1,-3.409772217E-1
1.550744864E0,9.678369522E0,4.642075896E-1,-3.798605800E-1
1.570205489E0,9.797411919E0,3.589234054E-1,-5.060819983E-1
1.589666219E0,9.866206169E0,3.140579760E-1,-6.580262184E-1
1.609126948E0,9.775876999E0,4.618147612E-1,-7.250252366E-1
1.628587573E0,9.677771568E0,5.808576941E-1,-6.759724021E-1
1.648048302E0,9.750752449E0,5.365904570E-1,-7.040880919E-1
1.667509031E0,9.865009308E0,3.541377485E-1,-8.691928387E-1
1.686969656E0,9.990633011E0,3.098705411E-1,-1.171286702E0
1.706430385E0,1.001575756E1,5.276173949E-1,-1.308275819E0
1.725891114E0,9.985847473E0,7.854440212E-1,-1.193420291E0
1.745351739E0,9.853643417E0,8.087740541E-1,-8.410771489E-1
1.764812469E0,9.627521515E0,6.245267391E-1,-6.376872063E-1
1.784273198E0,9.448657990E0,1.812563092E-1,-5.832505226E-1
1.803733823E0,9.287142754E0,-1.812563092E-1,-5.138586760E-1
1.823194552E0,9.363115311E0,-1.369891018E-1,-3.828516304E-1
1.842655281E0,9.687940598E0,2.673979402E-1,-4.552344978E-1
1.862115906E0,1.005224800E1,6.771687865E-1,-6.532405615E-1
1.881576635E0,1.016052341E1,5.593222976E-1,-1.094118118E0
1.901037364E0,9.985847473E0,8.793623000E-2,-1.409970760E0
1.920497989E0,9.684949875E0,-2.452643216E-1,-1.431506157E0
1.939958719E0,9.432506561E0,-1.471585929E-1,-1.315454245E0
1.959419344E0,9.173483849E0,5.204389244E-2,-1.268195987E0
1.978880073E0,9.006584167E0,-4.007977992E-2,-1.409970760E0
1.998340802E0,8.997611046E0,-2.291127741E-1,-1.868196249E0
2.017801427E0,8.825327873E0,-3.343969584E-1,-2.064407825E0
2.037262156E0,8.757730484E0,-4.486542568E-2,-2.020140409E0
2.056722885E0,8.783453941E0,7.112665176E-1,-1.806581140E0
2.076183510E0,9.190233231E0,1.561316729E0,-1.904686809E0
2.095644239E0,9.746564865E0,2.207378864E0,-2.349751949E0
2.115104969E0,1.009830952E1,2.332403898E0,-3.131008387E0
2.134565698E0,9.857831001E0,2.051247120E0,-3.425325632E0
2.154026323E0,9.381061554E0,1.709671736E0,-3.046063185E0
2.173487052E0,9.045467377E0,1.376471281E0,-2.901895761E0
2.192947781E0,9.150752068E0,1.179661512E0,-3.011367321E0
2.212408406E0,9.982855797E0,1.439880967E0,-3.384647608E0
2.231869135E0,1.084128094E1,1.681556106E0,-3.426522017E0
2.251329864E0,1.086461163E1,1.297508121E0,-2.545963287E0
2.270790489E0,1.042851925E1,8.045865893E-1,-1.470389485E0
2.290251219E0,9.935597420E0,6.586244106E-1,-6.173482537E-1
2.309711948E0,9.695118904E0,1.127019525E0,-5.688936114E-1
2.329172573E0,9.943972588E0,2.304288149E0,-1.235892892E0
2.348633302E0,1.042433167E1,3.767499208E0,-2.060818434E0
2.368094031E0,1.072044373E1,4.637290478E0,-2.432902336E0
2.387554656E0,1.042672443E1,4.475774765E0,-2.477767944E0
2.407015385E0,9.812965393E0,3.672384501E0,-2.360519648E0
2.426476114E0,9.160921097E0,3.043072224E0,-1.998605132E0
2.445936739E0,8.526225090E0,2.726621389E0,-1.584048629E0
2.465397469E0,8.263014793E0,2.539382935E0,-1.496112347E0
2.484858198E0,8.402995110E0,2.370688915E0,-1.546959877E0
2.504318823E0,8.716454506E0,2.258226395E0,-1.335793257E0
2.523779552E0,8.980263710E0,2.177468538E0,-1.067797065E0
2.543240281E0,9.108877182E0,2.047657967E0,-1.192223907E0
2.562701010E0,8.769096375E0,1.804188251E0,-1.532004714E0
2.582161635E0,8.623134613E0,1.941177368E0,-2.746960402E0
2.601622364E0,8.970093727E0,2.459223509E0,-4.417150497E0
2.621083094E0,9.235098839E0,2.356930256E0,-5.539982796E0
2.640543719E0,9.630513191E0,1.798804402E0,-5.914459229E0
2.660004448E0,1.022572803E1,1.548156261E0,-4.889134884E0
2.679465177E0,1.053978539E1,1.385444283E0,-3.318845034E0
2.698925802E0,1.074078274E1,1.968096644E-1,-1.587039590E0
2.718386531E0,1.033759212E1,-1.195813060E0,-3.900300860E-1
2.737847260E0,9.665806770E0,-1.366301775E0,-1.429711580E-1
2.757307885E0,9.096913338E0,2.063809484E-1,-3.750749528E-1
2.776768614E0,8.819944382E0,2.247458696E0,-1.085145116E0
2.796229344E0,8.987442017E0,3.214757204E0,-2.136790514E0
2.815689969E0,9.753145218E0,2.310868502E0,-2.714657307E0
2.835150698E0,1.054875851E1,4.833501875E-1,-2.757728100E0
2.854611427E0,1.091127110E1,-1.276570916E0,-2.670988321E0
2.874072052E0,1.045484066E1,-2.283350945E0,-2.228914261E0
2.893532781E0,9.810572624E0,-2.268994093E0,-1.548754454E0
2.912993510E0,9.396016121E0,-8.662018180E-1,-1.255035520E0
2.932454135E0,8.848658562E0,1.429711580E0,-1.535593987E0
2.951914864E0,8.918647766E0,2.888735056E0,-1.794018745E0
2.971375594E0,9.387042999E0,2.930609465E0,-2.127219439E0
2.990836219E0,9.696913719E0,1.360917926E0,-2.678765059E0
3.010296948E0,1.006361389E1,-1.316052526E-1,-2.439482689E0
3.029757677E0,1.001037312E1,-7.052844763E-1,-1.268794179E0
3.049218302E0,9.789635658E0,-4.594219327E-1,3.409772366E-2
3.068679031E0,9.442676544E0,-2.829512656E-1,1.824527234E-1
3.088139760E0,9.023932457E0,-6.664010882E-1,4.247260094E-2
3.107600385E0,8.705088615E0,-7.292127013E-1,-5.335994363E-1
3.127061114E0,8.816953659E0,-5.150550604E-1,-6.161518097E-1
3.146521844E0,9.728618622E0,-4.360919297E-1,-5.246263742E-1
3.165982573E0,1.048774147E1,-5.623133183E-1,-6.275177598E-1
3.185443198E0,1.070548820E1,-5.443671346E-1,-4.229314029E-1
3.204903927E0,1.030708313E1,-5.174478889E-1,1.106680483E-1
3.224364656E0,9.618548393E0,-9.535398483E-1,2.135594189E-1
3.243825281E0,9.023932457E0,-1.385444283E0,-1.256231815E-1
3.263286010E0,8.964710236E0,-1.293918848E0,-2.279163599E-1
3.282746739E0,9.622138023E0,-8.123632669E-1,-1.758724600E-1
3.302207364E0,1.024068260E1,-4.995017350E-1,-3.900300860E-1
3.321668094E0,1.032981491E1,-4.235295951E-1,-4.791627228E-1
3.341128823E0,1.022453117E1,-4.725824594E-1,-4.079762697E-1
3.360589448E0,9.924830437E0,-6.819544435E-1,-3.667000830E-1
3.380050177E0,9.667601585E0,-9.475577474E-1,-3.068794906E-1
3.399510906E0,9.461220741E0,-9.140582681E-1,2.536391914E-1
3.418971531E0,9.341579437E0,-7.615157962E-1,2.871387079E-2
3.438432260E0,9.775279045E0,-9.631111026E-1,-4.139583111E-1
3.457892989E0,1.016411209E1,-9.242277741E-1,-4.277170599E-1
3.477353614E0,1.003848934E1,-8.458628058E-1,-4.839483798E-1
3.496814344E0,9.952347755E0,-8.536394835E-1,-5.084748268E-1
3.516275073E0,1.010249710E1,-9.248259664E-1,-4.731806815E-1
3.535735802E0,9.869196892E0,-9.337990284E-1,-3.966103494E-1
3.555196427E0,9.292527199E0,-9.804590940E-1,-1.387837082E-1
3.574657156E0,9.092725754E0,-1.170688510E0,1.435693540E-2
3.594117885E0,9.446265221E0,-1.250249863E0,-1.734796353E-2
3.613578510E0,1.003848934E1,-1.066600680E0,-1.651047617E-1
3.633039239E0,1.014317513E1,-6.825526357E-1,-1.597209126E-1
3.652499969E0,1.008455086E1,-5.682953596E-1,-1.878365725E-1
3.671960594E0,1.012642574E1,-9.529415965E-1,-4.839483798E-1
3.691421323E0,1.004686451E1,-1.393819213E0,-5.605186820E-1
3.710882052E0,9.905089378E0,-1.588235974E0,-5.503492355E-1
3.730342677E0,9.837491989E0,-1.474576950E0,-2.895315289E-1
3.749803406E0,9.740582466E0,-1.487139225E0,-1.591227055E-1
3.769264135E0,9.626923561E0,-1.818545222E0,-3.714857101E-1
3.788724760E0,9.605986595E0,-2.300698996E0,-6.891329288E-1
3.808185489E0,9.744770050E0,-2.526222467E0,-7.351947427E-1
3.827646219E0,9.889535904E0,-2.532204628E0,-6.394818425E-1
3.847106844E0,1.002413273E1,-2.358126640E0,-6.370890141E-1
3.866567573E0,1.011027431E1,-1.948355794E0,-7.196413875E-1
3.886028302E0,9.983454704E0,-1.448255897E0,-7.274180651E-1
3.905489031E0,9.785448074E0,-9.750752449E-1,-5.946164131E-1
3.924949656E0,9.558728218E0,-6.819544435E-1,-3.810569942E-1
3.944410385E0,9.471389771E0,-5.742774606E-1,-3.529413342E-1
3.963871010E0,9.698708534E0,-4.420739710E-1,-2.769692242E-1
3.983331739E0,1.020538902E1,-3.589234129E-2,-1.974078640E-2
4.002792469E0,1.043270683E1,5.204389244E-2,8.853443712E-2
4.022253198E0,9.962516785E0,-8.069794178E-1,-1.621137410E-1
4.041713823E0,9.754940033E0,-1.859821439E0,-7.292127013E-1
4.061174552E0,9.833903313E0,-2.281556368E0,-9.756734371E-1
4.080635281E0,9.964311600E0,-1.615753531E0,-8.033902049E-1
4.100095906E0,9.880562782E0,-6.005984545E-1,-4.396811724E-1
4.119556635E0,9.622735977E0,2.524427772E-1,-3.152543902E-1
4.139017364E0,9.294321060E0,5.784648657E-1,-6.430711150E-1
4.158477989E0,9.249456406E0,6.173482537E-1,-1.174277663E0
4.177938719E0,9.235098839E0,6.831508875E-1,-1.418943882E0
4.197399448E0,9.110074043E0,7.722834945E-1,-1.229910851E0
4.216860073E0,8.860024452E0,6.412764788E-1,-9.613165259E-1
4.236320802E0,8.668000221E0,4.360919297E-1,-1.046261668E0
4.255781531E0,8.776873589E0,6.382854581E-1,-1.225125194E0
4.275242156E0,9.349954605E0,1.220937729E0,-1.061216831E0
4.294702885E0,1.032144070E1,1.825125456E0,-3.822534084E-1
4.314163614E0,1.124148083E1,1.749153376E0,4.151547253E-1
4.333624239E0,1.188036442E1,7.262216806E-1,5.449653864E-1
4.353084969E0,1.218305683E1,-2.991028363E-3,1.734796353E-2
4.372545698E0,1.166680527E1,2.285145670E-1,-6.801598072E-1
4.392006323E0,1.065763187E1,1.106082320E0,-8.775677085E-1
4.411467052E0,9.387042999E0,1.944168448E0,-6.765705943E-1
4.430927781E0,8.309076309E0,2.261217356E0,-4.839483798E-1
4.450388406E0,7.752745152E0,1.981855392E0,-2.967100143E-1
4.469849135E0,7.986045361E0,1.480558991E0,-5.718846321E-1
4.489309864E0,8.589634895E0,1.065404296E0,-1.728814393E-1
4.508770489E0,1.025384331E1,-5.246263742E-1,3.134597540E-1
4.528231219E0,1.174397373E1,-3.157927752E0,-4.995017350E-1
4.547691948E0,1.210289669E1,-3.665804386E0,-2.213360928E-2
4.567152573E0,1.122832012E1,-1.206580877E0,1.214955688E0
4.586613302E0,1.047039413E1,8.470591903E-1,1.385444283E0
4.606074031E0,9.582057953E0,1.773679733E0,-2.865405083E-1
4.625534656E0,9.178269386E0,2.081755638E0,-1.785643935E0
4.644995385E0,8.938388824E0,2.398206472E0,-1.578664780E0
4.664456114E0,8.607581139E0,2.840878725E0,-5.455635786E-1
4.683916739E0,9.014959335E0,2.358126640E0,-7.357929647E-2
4.703377469E0,9.985248566E0,9.541380405E-1,-3.302095234E-1
4.722838198E0,1.051765156E1,1.094716340E-1,-8.183453679E-1
4.742298823E0,1.077368355E1,-1.118644550E-1,-9.595218897E-1
4.761759552E0,1.060558796E1,1.788634956E-1,-8.273184299E-1
4.781220281E0,9.905687332E0,1.019342422E0,-9.146564603E-1
4.800680906E0,9.332606316E0,1.858624935E0,-1.189232826E0
4.820141635E0,9.070592880E0,2.455634356E0,-1.348355532E0
4.839602364E0,8.950951576E0,2.639283419E0,-1.508674622E0
4.859062989E0,9.125627518E0,2.435893536E0,-1.847259045E0
4.878523719E0,9.355338097E0,2.294716835E0,-2.155933142E0
4.897984448E0,9.557532310E0,2.298306227E0,-2.230110645E0
4.917445073E0,9.645467758E0,2.261217356E0,-1.912463546E0
4.936905802E0,9.604191780E0,2.009372711E0,-1.411765337E0
4.956366531E0,9.394221306E0,1.622333765E0,-1.013958573E0
4.975827156E0,9.227322578E0,1.207777262E0,-8.057830334E-1
4.995287885E0,9.262018204E0,9.852447510E-1,-7.172485590E-1
5.014748614E0,9.246464729E0,9.690931439E-1,-5.521438122E-1
5.034209239E0,9.256035805E0,1.010369420E0,-6.550351977E-1
5.053669969E0,9.824331284E0,1.096511006E0,-1.134197950E0
5.073130698E0,1.070967579E1,1.201795220E0,-1.375274777E0
5.092591323E0,1.158425236E1,1.030708313E0,-1.755135417E0
5.112052052E0,1.140957642E1,4.749752879E-1,-1.641476393E0
5.131512781E0,1.056849957E1,-9.990034252E-2,-1.326820135E0
5.150973406E0,9.771091461E0,-4.983053207E-1,-9.738788009E-1
5.170434135E0,9.153144836E0,-6.023930907E-1,-3.517449200E-1
5.189894864E0,8.729017258E0,-5.156532526E-1,1.728814393E-1
5.209355489E0,8.794819832E0,-3.541377485E-1,3.014956415E-1
5.228816219E0,9.308079720E0,-2.344966233E-1,2.697907388E-1
5.248276948E0,1.004207802E1,-4.307080805E-2,8.374879509E-2
5.267737573E0,1.050150013E1,7.597211748E-2,-8.075776696E-2
5.287198302E0,1.050987530E1,7.776673418E-3,-2.177468538E-1
5.306659031E0,1.009472084E1,-8.374879509E-2,-3.008974493E-1
5.326119656E0,9.535996437E0,-1.094716340E-1,-1.992024779E-1
5.345580385E0,9.171689034E0,-2.333002165E-2,-1.734796464E-1
5.365041114E0,9.165108681E0,1.160518974E-1,-2.793620527E-1
5.384501844E0,9.538987160E0,4.091726840E-1,-4.630111754E-1
5.403962469E0,1.008514881E1,6.520441771E-1,-6.095715761E-1
5.423423198E0,1.045723343E1,7.076773047E-1,-7.938188910E-1
5.442883927E0,1.046201897E1,4.821537733E-1,-8.721838593E-1
5.462344552E0,1.015513897E1,1.232303679E-1,-7.160521746E-1
5.481805281E0,9.805787086E0,-1.794616925E-3,-3.960121572E-1
5.501266010E0,9.608977318E0,6.640082598E-2,-9.451649338E-2
5.520726635E0,9.554540634E0,1.489532143E-1,4.067798331E-2
5.540187364E0,9.488738060E0,1.513460279E-1,7.178468257E-2
5.559648094E0,9.544371605E0,1.124626622E-1,7.836493850E-2
5.579108719E0,9.608977318E0,2.751746029E-2,7.537391037E-2
5.598569448E0,9.845269203E0,-4.366901144E-2,-9.571290575E-3
5.618030177E0,1.009950638E1,-1.495514158E-2,-1.902294010E-1
5.637490802E0,1.019641590E1,1.447657645E-1,-3.050848842E-1
5.656951531E0,9.993025780E0,3.936193287E-1,-3.726821244E-1
5.676412260E0,9.824930191E0,4.737788737E-1,-3.445664644E-1
5.695872885E0,9.802198410E0,3.894318938E-1,-2.853440940E-1
5.715333614E0,9.831509590E0,2.620140910E-1,-2.045863420E-1
5.734794344E0,9.817152977E0,1.752742529E-1,-1.513460279E-1
5.754255073E0,9.772886276E0,1.256231871E-2,-1.214357466E-1
5.773715698E0,9.695717812E0,-1.124626622E-1,-1.405783296E-1
5.793176427E0,9.718449593E0,3.768695518E-2,-1.914258152E-1
5.812637156E0,9.713065147E0,1.986042857E-1,-6.879365444E-2
5.832097781E0,9.724431038E0,2.410768867E-1,-1.836491376E-1
5.851558510E0,9.738788605E0,2.261217386E-1,-3.678964674E-1
5.871019239E0,9.820143700E0,2.309073806E-1,-4.695914388E-1
5.890479864E0,9.936794281E0,2.524427772E-1,-6.047859192E-1
5.909940594E0,1.000199890E1,2.638086975E-1,-7.471588850E-1
5.929401323E0,1.006301594E1,2.805584669E-1,-8.321040869E-1
5.948861948E0,1.011027431E1,2.446661144E-1,-8.285148144E-1
5.968322677E0,1.013180923E1,1.112662554E-1,-8.255237937E-1
5.987783406E0,1.004387283E1,-2.273181453E-2,-7.136593461E-1
6.007244135E0,9.876974106E0,-1.274178028E-1,-5.222335458E-1
6.026704760E0,9.715457916E0,-1.860419661E-1,-4.133601189E-1
6.046165489E0,9.635298729E0,-2.297109663E-1,-4.408775866E-1
6.065626219E0,9.651450157E0,-2.135594189E-1,-4.462614357E-1
6.085086844E0,9.728618622E0,-1.322034448E-1,-4.456632137E-1
6.104547573E0,9.767501831E0,-5.802594870E-2,-3.816552162E-1
6.124008302E0,9.744770050E0,1.196411322E-3,-3.840480447E-1
6.143468927E0,9.805787086E0,1.375873089E-1,-4.725824594E-1
6.162929656E0,9.886545181E0,2.608176768E-1,-5.330012441E-1
6.182390385E0,9.985248566E0,2.763710022E-1,-6.005984545E-1
6.201851114E0,1.005882835E1,2.231307179E-1,-6.538388133E-1
6.221311739E0,1.003549862E1,2.273181528E-1,-6.520441771E-1
6.240772469E0,9.957133293E0,2.123630047E-1,-5.952146053E-1
6.260233198E0,9.886545181E0,1.878365725E-1,-5.108676553E-1
6.279693927E0,9.843474388E0,1.974078715E-1,-4.211367965E-1
6.299154552E0,9.930811882E0,1.609173268E-1,-3.631108403E-1
6.318615281E0,1.002831936E1,1.148554832E-1,-4.534398913E-1
6.338076010E0,1.003609657E1,1.465603858E-1,-3.876372576E-1
6.357536635E0,9.985248566E0,1.740778536E-1,-2.524427772E-1
6.376997364E0,9.818947792E0,1.992024779E-1,-1.621137410E-1
6.396458094E0,9.687342644E0,2.602194548E-1,-8.135596663E-2
6.415918823E0,9.710074425E0,3.218346536E-1,-5.503492057E-2
6.435379448E0,9.887143135E0,3.116651475E-1,-2.757728100E-1
6.454840177E0,1.004686451E1,3.068794906E-1,-3.768695593E-1
6.474300906E0,1.000498962E1,3.248256743E-1,-2.548356056E-1
6.493761531E0,9.781260490E0,3.146561682E-1,3.948157281E-2
6.513222260E0,9.566504478E0,2.536391914E-1,3.068794906E-1
6.532682989E0,9.457033157E0,1.956132501E-1,3.050848842E-1
6.552142445E0,9.585049629E0,1.812563092E-1,9.870393574E-2
6.571603175E0,9.793225288E0,1.968096644E-1,-6.939185411E-2
6.591063904E0,9.906285286E0,2.560320199E-1,-1.531406492E-1
6.610524633E0,9.897313118E0,2.554338276E-1,-2.141576260E-1
6.629985258E0,9.854242325E0,2.506481707E-1,-2.333002090E-1
6.649445987E0,9.853643417E0,2.871387303E-1,-2.117647976E-1
6.668906716E0,9.873982430E0,2.847459018E-1,-2.380858511E-1
6.688367445E0,9.938589096E0,3.314059377E-1,-1.992024779E-1
6.707828070E0,9.915258408E0,4.277170599E-1,-1.621137410E-1
6.727288800E0,9.869794846E0,5.300102234E-1,-2.081755698E-1
6.746749529E0,9.840482712E0,5.790630579E-1,-2.327020019E-1
6.766210154E0,9.778269768E0,5.718846321E-1,-1.519442350E-1
6.785670883E0,9.747760773E0,4.600201547E-1,3.110669367E-2
6.805131612E0,9.792626381E0,2.219343036E-1,1.866401732E-1
6.824592341E0,9.964909554E0,9.571290761E-2,-2.333002165E-2
6.844052966E0,1.010668468E1,1.680957973E-1,-6.520441771E-1
6.863513695E0,9.292527199E0,-2.093719877E-2,-8.943174481E-1
6.882974425E0,9.528220177E0,-2.201396823E-1,-2.488535494E-1
6.902435154E0,1.011147022E1,-4.779663086E-1,-3.290131316E-2
6.921895779E0,1.021077251E1,1.064806059E-1,1.734796353E-2
6.941356508E0,9.955338478E0,7.124629617E-1,-8.973085321E-3
6.960817237E0,9.872786522E0,4.085744619E-1,-3.409772217E-1
6.980277862E0,9.961918831E0,-3.290131316E-2,-6.281159520E-1
6.999738591E0,9.845867157E0,-1.304088384E-1,-3.445664644E-1
7.019199320E0,9.684351921E0,-3.768695518E-2,3.589234129E-2
7.038660050E0,9.809376717E0,4.067798331E-2,4.905286431E-2
7.058120675E0,9.993623734E0,1.184447184E-1,-1.585244983E-1
7.077581404E0,1.000857925E1,3.128615618E-1,-2.979064286E-1
7.097042133E0,9.917053223E0,4.875376225E-1,-2.967100143E-1
7.116502862E0,9.792626381E0,3.798605800E-1,-1.944168359E-1
7.135963487E0,9.743574142E0,1.872383654E-1,-8.973085135E-2
7.155424216E0,9.706484795E0,1.633101404E-1,-4.725824669E-2
7.174884945E0,9.735796928E0,2.099701911E-1,-1.244267747E-1
7.194345675E0,9.798010826E0,2.536391914E-1,-3.098705411E-1
7.213806300E0,9.981060982E0,3.523431420E-1,-4.019941986E-1
7.233267029E0,1.007617569E1,4.121637046E-1,-2.344966233E-1
7.252727758E0,1.002054310E1,3.164508045E-1,-1.938186288E-1
7.272188487E0,9.817152977E0,1.525424421E-1,-2.440679073E-1
7.291649112E0,9.729815483E0,2.273181453E-2,-3.320041299E-1
7.311109841E0,9.748359680E0,4.067798331E-2,-3.451646566E-1
7.330570570E0,9.801599503E0,1.824527234E-1,-2.733799815E-1
7.350031300E0,9.858428955E0,4.109672904E-1,-2.769692242E-1
7.369491925E0,9.885947227E0,5.551348329E-1,-3.445664644E-1
7.388952654E0,9.853045464E0,4.660021961E-1,-3.397808075E-1
7.408413383E0,9.808777809E0,2.608176768E-1,-2.638086975E-1
7.427874112E0,9.784252167E0,2.201396823E-1,-1.866401732E-1
7.447334737E0,9.836296082E0,3.116651475E-1,-1.812563092E-1
7.466795466E0,9.955338478E0,4.289134443E-1,-2.045863420E-1
7.486256195E0,1.003789139E1,5.114658475E-1,-2.973082066E-1
7.505716925E0,1.002413273E1,5.826523304E-1,-4.217349887E-1
7.525177550E0,9.894321442E0,5.611169338E-1,-5.593222976E-1
7.544638279E0,9.748359680E0,5.282155871E-1,-5.545366406E-1
7.564099008E0,9.741779327E0,5.168496966E-1,-4.749752879E-1
7.583559737E0,9.818349838E0,5.461617708E-1,-4.492524564E-1
7.603020362E0,9.881160736E0,4.965106845E-1,-5.413761139E-1
7.622481091E0,9.922437668E0,4.043870270E-1,-6.669993401E-1
7.641941820E0,9.908080101E0,3.786641955E-1,-7.100701332E-1
7.661402550E0,9.805189133E0,4.265206456E-1,-5.934200287E-1
7.680863279E0,9.672985077E0,5.078766346E-1,-4.671986103E-1
7.700323904E0,9.696315765E0,4.989035130E-1,-3.966103494E-1
7.719784633E0,9.939187050E0,4.408775866E-1,-4.360919297E-1
7.739245362E0,1.003430176E1,4.689932466E-1,-4.779663086E-1
7.758706091E0,9.869794846E0,4.845465720E-1,-5.629115105E-1
7.778166716E0,9.649057388E0,5.042873621E-1,-5.036891699E-1
7.797627445E0,9.558728218E0,4.797609448E-1,-4.289134443E-1
7.817088175E0,9.729815483E0,3.828516304E-1,-4.187439680E-1
7.836548904E0,9.946365356E0,3.164508045E-1,-4.725824594E-1
7.856009529E0,1.000020409E1,3.242274821E-1,-6.412764788E-1
7.875470258E0,9.890732765E0,3.619144261E-1,-6.233302951E-1
7.894930987E0,9.826126099E0,3.385843933E-1,-4.677968323E-1
7.914391716E0,9.777072906E0,2.865405083E-1,-3.529413342E-1
7.933852445E0,9.793823242E0,2.709871531E-1,-3.475574851E-1
7.953313070E0,9.853045464E0,3.218346536E-1,-3.918247223E-1
7.972773800E0,9.860223770E0,3.840480447E-1,-3.894318938E-1
7.992234529E0,9.833903313E0,4.139583111E-1,-3.684946895E-1
8.011695258E0,9.783653259E0,4.271188378E-1,-3.762713671E-1
8.031155883E0,9.798608780E0,3.804588020E-1,-3.780659735E-1
8.050616612E0,9.856635094E0,3.278166950E-1,-3.523431420E-1
8.070077341E0,9.868000984E0,3.254238665E-1,-4.019941986E-1
8.089538070E0,9.887741089E0,3.672982752E-1,-4.654040039E-1
8.108998800E0,9.873982430E0,4.372883439E-1,-4.971089065E-1
8.128459425E0,9.856635094E0,4.444667995E-1,-4.336991012E-1
8.147920154E0,9.798608780E0,3.332005441E-1,-3.326023519E-1
8.167380883E0,9.774680138E0,1.914258152E-1,-3.152543902E-1
8.186841612E0,9.832108498E0,1.627119333E-1,-3.260220885E-1
8.206302237E0,9.859027863E0,2.662015259E-1,-3.595215976E-1
8.225762966E0,9.905687332E0,3.158525825E-1,-4.145565331E-1
8.245223695E0,9.894919395E0,3.044866920E-1,-3.972085714E-1
8.264684425E0,9.847063065E0,2.679961324E-1,-3.756731451E-1
8.284145154E0,9.762716293E0,2.889333367E-1,-3.337987661E-1
8.303605779E0,9.714262009E0,2.949153781E-1,-3.314059377E-1
8.323066508E0,9.834501266E0,2.590230405E-1,-3.367897868E-1
8.342527237E0,9.924231529E0,2.177468538E-1,-2.805584669E-1
8.361987966E0,9.967901230E0,2.368894368E-1,-3.511467278E-1
8.381448695E0,9.896116257E0,2.650051117E-1,-4.211367965E-1
8.400909320E0,9.777072906E0,1.944168359E-1,-3.565305769E-1
8.420370050E0,9.679565430E0,1.184447184E-1,-2.177468538E-1
8.439830779E0,9.613762856E0,9.631111473E-2,-1.579262912E-1
8.459291508E0,9.764511108E0,1.567298770E-1,-1.609173268E-1
8.478752237E0,1.002473068E1,2.315055877E-1,-2.297109663E-1
8.498212862E0,1.005464077E1,2.584248483E-1,-3.469592929E-1
8.517673591E0,9.914660454E0,3.068794906E-1,-4.307080805E-1
8.537134320E0,9.832108498E0,3.475574851E-1,-4.935196638E-1
8.556595050E0,9.758528709E0,3.457628787E-1,-5.437689424E-1
8.576055779E0,9.760921478E0,3.583251834E-1,-5.874379873E-1
8.595516404E0,9.827322960E0,4.642075896E-1,-6.777670383E-1
8.614977133E0,9.909874916E0,5.353940725E-1,-7.166503668E-1
8.634437862E0,9.906285286E0,3.684946895E-1,-7.387840152E-1
8.653898591E0,9.851250648E0,6.939185411E-2,-8.327022791E-1
8.673359320E0,9.631111145E0,-1.495514158E-2,-8.446664214E-1
8.692819945E0,9.299705505E0,8.793623000E-2,-8.763712645E-1
8.712280675E0,8.866603851E0,1.848455518E-1,-1.177268744E0
8.731741404E0,8.254639626E0,1.824527234E-1,-1.829911113E0
8.751202133E0,7.523034573E0,6.939185411E-2,-2.726023197E0
8.770662862E0,6.629913330E0,-2.392822644E-3,-3.183052301E0
8.790123487E0,5.749952793E0,2.745763958E-1,-3.166900873E0
8.809584216E0,4.915455818E0,9.176474810E-1,-2.333600283E0
8.829044945E0,4.019343853E0,1.416550994E0,-9.505487680E-1
8.848505675E0,3.875176191E0,1.224527001E0,5.060819983E-1
8.867966404E0,5.312066078E0,4.402793646E-1,1.512862086E0
8.887427029E0,8.032705307E0,-2.973082066E-1,1.336989641E0
8.906887758E0,1.121755219E1,-1.271785259E0,-4.283152521E-1
8.926348487E0,1.462493229E1,-1.012163997E0,-3.340380430E0
8.945809216E0,1.805803490E1,2.572284341E-1,-3.226123095E0
8.965269945E0,2.312124634E1,9.978070259E-1,-2.398206472E0
8.984730675E0,2.891905594E1,1.162313581E0,-2.505285263E0
9.004191300E0,3.028116989E1,5.126622319E-1,-2.854637384E0
9.023652029E0,2.659622383E1,1.435693540E-2,-2.124826431E0
9.043112758E0,2.134936142E1,-6.257231236E-1,-3.150151014E0
9.062573487E0,1.667976761E1,-1.016949654E0,-4.326821327E0
9.082034216E0,1.279143143E1,-6.849454641E-1,-4.171288013E0
9.101494945E0,1.001156998E1,-2.392822653E-1,-3.171686411E0
9.120955675E0,7.415357590E0,3.529413417E-2,-2.067398787E0
9.140416300E0,4.137190342E0,3.116651475E-1,-6.646065116E-1
9.159877029E0,-7.435696125E-1,7.040880919E-1,1.148554921E0
9.179337758E0,-5.899504185E0,8.925228715E-1,1.869990945E0
9.198798487E0,-6.729215622E0,6.993024349E-1,6.412764788E-1
9.218259216E0,-5.016552448E0,5.383851007E-2,-6.305087805E-1
9.237719841E0,-1.829312921E0,-6.765705943E-1,-4.319044948E-1
9.257180570E0,1.830509305E0,-6.825526357E-1,3.529413342E-1
9.276641300E0,3.340380430E0,-2.410768867E-1,6.550351977E-1
9.296102029E0,2.778067112E0,3.541377485E-1,9.930214286E-2
9.315562758E0,7.908278704E-1,1.071984529E0,-8.751748800E-1
9.335023487E0,-9.254241586E-1,1.378864050E0,-1.581057549E0
9.354484112E0,-1.249053478E0,7.561319470E-1,-2.221735716E0
9.373944841E0,2.673979402E-1,-4.773681164E-1,-3.589233875E0
9.393405570E0,3.880560160E0,-9.631111473E-2,-4.285545349E0
9.412866300E0,7.816154957E0,1.455434322E0,-3.122035265E0
9.432327029E0,1.758724594E1,2.734398127E0,-7.490731239E0
9.451787758E0,3.597130203E1,3.049652576E0,-5.742774159E-2
9.471248487E0,6.079265213E1,-4.716851711E0,3.250649452E0
9.490709112E0,4.599423981E1,-6.895516872E0,-5.271986485E0
9.510169841E0,2.314756775E1,-1.347159147E0,-3.836292982E0
9.529630570E0,1.684247971E1,1.915454507E0,-2.145763636E0
9.549091300E0,1.186122227E1,2.687737942E0,1.088734269E-1
9.568552029E0,6.796812534E0,1.849651933E0,-7.968099117E-1
9.588012758E0,1.429711580E0,1.232303619E0,-9.732806087E-1
9.607473487E0,-4.165306091E0,7.058826685E-1,5.653043389E-1
9.626934112E0,-8.592027664E0,-1.525424421E-1,1.574477315E0
9.646394841E0,-8.505288124E0,-2.261217356E0,8.685946465E-1
9.665855570E0,-4.185046673E0,-3.259024382E0,7.393822074E-1
9.685316300E0,-2.512463629E-1,-1.533799291E0,4.313062727E-1
9.704777029E0,2.273779631E0,9.768698215E-1,-1.238285750E-1
9.724237758E0,3.000599623E0,2.367697954E0,-4.755735099E-1
9.743698487E0,2.439482689E0,2.170888424E0,-6.209374666E-1
9.763159112E0,9.702895880E-1,1.277169108E0,-7.830511928E-1
9.782619841E0,1.250249892E-1,2.392822690E-2,-1.252642632E0
9.802080570E0,1.838884234E0,-5.210371017E-1,-4.355535507E0
9.821541300E0,8.640482903E0,1.374078393E0,-6.760920525E0
9.841002029E0,2.836451912E1,3.230908871E0,6.442675114E0
9.860462758E0,5.597829056E1,3.516252756E0,-3.550948858E0
9.879923487E0,5.536453247E1,-6.251249313E-1,-1.477986717E1
9.899384216E0,2.925225639E1,-1.629512191E0,-4.895116806E0
9.918844841E0,1.273101330E1,-1.304088384E-1,-3.122633696E-1
9.938305570E0,5.088337421E0,-2.087737769E-1,1.375274777E0
9.957766300E0,2.390429735E0,-5.162515044E-1,2.133799553E0
9.977227029E0,1.196411327E-1,-7.118647099E-1,1.347757339E0
9.996687758E0,-4.063013077E0,-9.164510965E-1,-3.433700502E-1
1.001614849E1,-7.818548203E0,4.851447940E-1,-2.395215511E0
1.003560922E1,-7.251449108E0,2.676970243E0,-2.410768747E0
1.005506984E1,-3.402593851E0,2.553740025E0,7.579265833E-1
1.007453057E1,4.845465720E-1,2.937189937E-1,2.358724833E0
1.009399130E1,2.787040234E0,-1.610369682E0,1.939382792E0
1.011345203E1,4.108476639E0,-1.821536183E0,1.038485050E0
1.013291276E1,2.615355253E0,-1.435693651E-1,-4.785645381E-2
1.015237349E1,-3.050848842E-2,1.587039590E0,-2.082353830E0
1.017183422E1,-1.473380566E0,2.005185366E0,-3.681955814E0
1.019129495E1,2.074577332E0,1.008574724E0,-4.761118889E0
1.021075557E1,1.016710377E1,1.494317770E0,-5.990431309E0
1.023021630E1,2.316312218E1,3.238685369E0,-5.839085579E0
1.024967703E1,4.363551331E1,6.370890141E-1,4.025924206E0
1.026913776E1,5.996174240E1,-1.018325520E1,-1.507478237E0
1.028859849E1,3.633919907E1,-8.227720261E0,-5.021338463E0
1.030805922E1,1.801496315E1,9.224331379E-1,-9.308080077E-1
1.032751994E1,1.286919880E1,5.443073273E0,-1.037886858E0
1.034698068E1,7.795217991E0,3.967898130E0,-2.982055187E0
1.036644140E1,4.807778835E0,-5.234299302E-1,-4.131806374E0
1.038590203E1,1.309472203E0,-2.230708838E0,-1.511665702E0
1.040536276E1,-3.396013498E0,-9.469595551E-1,2.310868502E0
1.042482349E1,-6.335596085E0,-9.212367237E-2,2.149353027E0
1.044428422E1,-3.957728624E0,-9.463613629E-1,-2.225325108E-1
1.046374494E1,-2.365903378E0,-5.617151260E-1,1.531406492E-1
1.048320568E1,-1.998006940E0,1.773679733E0,7.531409264E-1
1.050266640E1,-1.847857237E0,3.017947674E0,2.380858511E-1
1.052212713E1,-1.279561877E0,1.281356573E0,-1.654636860E0
1.054158786E1,1.674975827E-2,-1.460219979E0,-2.793022156E0
1.056104849E1,1.353141189E0,-2.667398930E0,-2.681157827E0
1.058050922E1,5.071587563E0,-2.012363911E0,-3.078366280E0
1.059996994E1,1.267119217E1,9.254241586E-1,-3.828516245E0
1.061943068E1,2.851586533E1,5.185844898E0,1.237089276E0
1.063889140E1,4.435754776E1,6.002993584E0,3.741178274E0
1.065835213E1,4.346981049E1,2.026720762E0,-1.163569832E1
1.067781286E1,3.030509949E1,-4.995017052E0,-5.288137913E0
1.069727359E1,2.040299988E1,-7.109076023E0,-4.737788737E-1
1.071673432E1,1.011625576E1,-5.590830326E0,9.343972206E-1
1.073619505E1,4.611567497E0,-1.685743570E0,1.068993568E0
1.075565578E1,1.923231244E0,2.045863390E0,1.356132269E0
1.077511651E1,-1.508076429E0,3.769891977E0,2.434697002E-1
1.079457713E1,-5.615954876E0,4.071985722E0,-1.404586911E0
1.081403786E1,-6.650252342E0,3.588037491E0,-2.721237659E0
1.083349859E1,-3.923032761E0,1.718644857E0,-7.621139884E-1
1.085295932E1,-4.773681164E-1,-4.845465720E-1,1.705484390E0
1.087242005E1,1.451246977E0,-2.108675003E0,2.141576290E0
1.089188078E1,2.395215511E0,-2.587239504E0,1.265803218E0
1.091134151E1,2.172084808E0,-1.439880967E0,5.724828243E-1
1.093080224E1,5.437689424E-1,2.398804724E-1,-2.823530734E-1
1.095026297E1,-7.974081635E-1,1.120439172E0,-2.586641312E0
1.096972370E1,1.238285661E0,1.324427366E0,-4.699503899E0
1.098918432E1,7.788039684E0,1.324427366E0,-7.585247993E0
1.100864505E1,2.197927284E1,1.022333503E0,-6.298507214E0
1.102810578E1,5.390431213E1,-9.086744189E-1,2.988037348E0
1.104756651E1,5.853502274E1,-5.110470772E0,-4.366901144E-2
1.106702724E1,2.649811745E1,-3.832703590E0,-2.310868502E0
1.108648797E1,1.588056564E1,-1.374078393E0,-2.612364054E0
1.110594870E1,1.295833111E1,8.656035662E-1,-2.606980324E0
1.112540942E1,1.013121128E1,6.275177598E-1,-2.193620205E0
1.114487015E1,7.491329670E0,-8.213363886E-1,-2.164906263E0
1.116433088E1,4.385445595E0,-6.299105883E-1,-1.816750646E0
1.118379161E1,-4.283152521E-1,9.852447510E-1,6.478567123E-1
1.120325234E1,-5.576473236E0,2.451446772E0,1.891526341E0
1.122271307E1,-6.982256413E0,2.511267424E0,-6.221339107E-1
1.124217380E1,-5.124827862E0,1.691127419E0,-1.508076429E0
1.126163442E1,-3.694518089E0,1.447657704E0,-1.178465128E0
1.128109515E1,-1.989033818E0,8.823533654E-1,-1.652842283E0
1.130055588E1,-3.373879790E-1,-4.953143001E-1,-1.092921734E0
1.132001661E1,1.502692580E0,-2.054238319E0,2.141576260E-1
1.133947734E1,3.345165968E0,-2.986840963E0,1.657029688E-1
1.135893807E1,7.729415417E0,-2.366501570E0,-3.836891174E0
1.137839880E1,1.843490410E1,2.462214470E0,-1.470987678E0
1.139785953E1,3.824986649E1,7.028916359E0,9.750154495E0
1.141732026E1,4.761477661E1,6.098108292E0,-1.579262912E-1
1.143678099E1,3.853999710E1,-3.994219303E0,-7.892127514E0
1.145624172E1,2.582035065E1,-1.147179031E1,-3.943371773E0
1.147570245E1,1.464766407E1,-8.851051331E0,-1.964507341E0
1.149516318E1,5.469394207E0,-2.173879385E0,3.942175210E-1
1.151462390E1,2.997010350E-1,2.946162939E0,1.983649969E0
1.153408463E1,-4.068396568E0,5.956932068E0,3.894318938E-1
1.155354536E1,-7.227520943E0,6.391827583E0,-9.661021233E-1
1.157300609E1,-6.278168201E0,4.312464714E0,-3.096312523E0
1.159246672E1,-4.153341770E0,9.750752449E-1,-3.258426189E0
1.161192745E1,-1.723430514E0,-1.806581140E0,-5.617151260E-1
1.163138818E1,1.219741344E0,-2.519043922E0,1.633699656E0
1.165084890E1,2.584846735E0,-1.615155339E0,1.825723648E0
1.167030963E1,3.356531858E0,5.988038778E-1,1.088734269E0
1.168977036E1,2.057229280E0,3.239283562E0,3.684946895E-1
1.170923109E1,-2.057827413E-1,3.683750391E0,-1.969292998E0
1.172869182E1,3.367897868E-1,1.874178290E0,-5.029115200E0
1.174815255E1,4.741377831E0,2.027917206E-1,-5.934200287E0
1.176761328E1,1.681376648E1,-7.178467698E-3,-5.516054630E0
1.178707401E1,4.268735886E1,9.936196208E-1,4.296313286E0
1.180653474E1,6.162236023E1,-3.589832067E0,3.011965513E0
1.182599547E1,3.713182068E1,-3.367897987E0,-2.178664923E0
1.184545620E1,1.888355827E1,1.167697430E0,-1.591825247E0
1.186491693E1,1.261436272E1,3.041277647E0,-5.387440205E0
1.188437765E1,1.021436119E1,5.054838061E-1,-5.073980331E0
1.190383838E1,8.845068932E0,-1.993221283E0,-2.822932482E0
1.192329911E1,7.006783009E0,-1.815554142E0,-1.195214868E0
1.194275984E1,3.748954773E0,8.285148144E-1,5.365904570E-1
1.196222057E1,-1.576870084E0,2.925225735E0,1.512263894E0
1.198168130E1,-5.962316036E0,2.073979139E0,3.702892959E-1
1.200114203E1,-6.891329288E0,-3.026920557E-1,-4.025924206E-1
1.202060276E1,-5.507081509E0,-1.785045743E0,-8.255238086E-2
1.204006349E1,-3.677170277E0,-1.042074203E0,-5.132604837E-1
1.205952422E1,-1.277767301E0,8.662018180E-1,-7.196413875E-1
1.207898484E1,1.515254974E0,2.391027927E0,-1.116251707E0
1.209844557E1,3.941577196E0,2.145165443E0,-1.362712502E0
1.211790630E1,6.752545357E0,1.289731383E0,-2.836691141E0
1.213736703E1,1.071745300E1,2.111067772E0,-3.312862873E0
1.215682776E1,1.945723724E1,3.799204111E0,2.026720762E0
1.217628859E1,3.890191269E1,6.197410822E-1,5.860620975E0
1.219574932E1,4.405904388E1,-2.598605394E0,-8.089534760E0
1.221521005E1,3.262075424E1,3.984049559E-1,-3.056830883E0
1.223467078E1,2.113041878E1,2.626122832E-1,1.730010748E0
1.225413151E1,1.344467258E1,-1.228116274E0,8.171489239E-1
1.227359224E1,7.402196884E0,-1.782652855E0,-1.037288666E0
1.229305297E1,3.388834953E0,-2.931207791E-2,-1.465603828E0
1.231251370E1,-8.374879509E-2,1.526620865E0,-5.922235847E-1
1.233197442E1,-5.126622677E0,2.374278307E0,7.896314561E-2
1.235143505E1,-8.143971443E0,2.653640270E0,-1.329213023E0
1.237089578E1,-6.827321053E0,1.634896040E0,-2.425724030E0
1.239035651E1,-2.874976397E0,2.087737769E-1,-5.335994363E-1
1.240981724E1,8.356932998E-1,-6.209374666E-1,1.478764415E0
1.242927797E1,2.560320139E0,-1.205982566E0,1.450050473E0
1.244873870E1,2.977867842E0,-1.456630826E0,-4.378865361E-1
1.246819942E1,2.126621008E0,-6.879364848E-1,-2.089532375E0
1.248766015E1,1.488933921E0,6.927221417E-1,-3.027518749E0
1.250712088E1,4.082155228E0,2.120040894E0,-4.700101852E0
1.252658161E1,1.217827129E1,3.417548895E0,-4.945366383E0
1.254604234E1,3.226063156E1,4.636692047E0,1.150349498E0
1.256550307E1,6.097809219E1,1.832303882E0,5.481956482E0
1.258496380E1,3.683929825E1,-5.165505886E0,2.735594511E0
1.260442453E1,1.915813446E1,-4.540979385E0,-3.397808075E-1
1.262388526E1,1.465843105E1,-2.468794823E0,-2.029113531E0
1.264334609E1,1.131685448E1,9.152546525E-2,-2.991028309E0
1.266280672E1,8.511270523E0,1.594816327E0,-2.868396044E0
1.268226755E1,5.977869034E0,1.619940877E0,-2.483749866E0
1.270172818E1,3.443870068E0,1.235294700E0,-1.660020709E0
1.272118890E1,-3.858426511E-1,6.849454641E-1,6.765705943E-1
1.274064963E1,-4.900500774E0,-4.588237405E-1,2.017149448E0
1.276011036E1,-6.406184196E0,-2.161317110E0,-1.651047617E-1
1.277957109E1,-4.438087940E0,-1.917249203E0,-2.041077614E0
1.279903182E1,-2.375474691E0,5.330012441E-1,-1.497906923E0
1.281849255E1,-1.116850019E0,2.212164640E0,-5.054838061E-1
1.283795328E1,8.374879509E-2,1.834696770E0,2.350948304E-1
1.285741401E1,1.980060697E0,-3.062812984E-1,-6.101697683E-2
1.287687474E1,6.458228111E0,-2.181057930E0,-2.737987280E0
1.289633547E1,1.431087399E1,-1.014556766E0,-4.353142738E0
1.291579620E1,2.402393913E1,3.119642496E0,1.909472466E0
1.293525703E1,3.712045670E1,4.974080086E0,6.921239376E0
1.295471776E1,4.679643250E1,4.127618968E-1,-3.348157167E0
1.297417849E1,3.135973549E1,-4.803591251E0,-7.488338470E0
1.299363922E1,1.962652969E1,-5.117051125E0,-4.360919476E0
1.301309994E1,1.149631596E1,-1.921436548E0,-9.756734371E-1
1.303256068E1,5.501697540E0,1.180858016E0,1.340578914E0
1.305202140E1,2.426920414E0,3.040081263E0,1.533201098E0
1.307148213E1,-5.766702294E-1,3.221935749E0,-8.638089895E-1
1.309094286E1,-3.668795347E0,2.253440619E0,-2.347358942E0
1.311040359E1,-4.599005222E0,9.517452121E-1,-2.094317913E0
1.312986432E1,-4.636094093E0,-2.667997181E-1,-1.381256819E0
1.314932505E1,-2.277967215E0,-1.406979680E0,2.590230405E-1
1.316878578E1,-1.124626622E-1,-1.244866014E0,5.389832854E-1
1.318824651E1,1.289731383E0,-3.122633696E-1,1.148554832E-1
1.320770724E1,1.939382792E0,4.893322289E-1,-8.434699476E-2
1.322716797E1,1.666600943E0,1.115653515E0,-2.596212626E-1
1.324662870E1,1.982453585E0,7.489534616E-1,-8.446664214E-1
1.326608942E1,4.138985157E0,-1.052841991E-1,-2.751745939E0
1.328555015E1,8.994022369E0,-4.600201547E-1,-4.715655327E0
1.330501088E1,2.018884277E1,-7.836493850E-2,-3.836891174E0
1.332447161E1,4.217230225E1,2.817548752E0,2.610569477E0
1.334393234E1,5.324927521E1,9.720842242E-1,4.613960266E0
1.336339307E1,3.038525772E1,-1.222732425E0,1.093519926E0
1.338285380E1,1.761536217E1,-2.599801779E0,-1.186840057E0
1.340231453E1,1.243011570E1,-2.882753134E0,-4.261617184E0
1.342177526E1,1.073659515E1,-2.073979139E0,-4.839483738E0
1.344123609E1,9.769296646E0,-5.760720372E-1,-3.719044685E0
1.346069682E1,7.841877937E0,1.802393675E0,-2.252244234E0
1.348015755E1,3.787838221E0,3.799204111E0,-6.221338734E-2
1.349961828E1,-1.333400369E0,3.742972851E0,1.006780148E0
1.351907901E1,-5.304887772E0,1.594816327E0,-1.728814393E-1
1.353853974E1,-6.566503525E0,-6.993024349E-1,-1.027119160E0
1.355800047E1,-4.980062008E0,-1.891526341E0,-5.527420044E-1
1.357746120E1,-2.963510752E0,-1.542174220E0,-5.748756528E-1
1.359692192E1,-6.388836503E-1,-4.642075896E-1,-1.914258115E-2
1.361638265E1,4.677968323E-1,2.973082066E-1,9.966106415E-1
1.363584338E1,2.087737799E0,1.692921966E-1,3.272185028E-1
1.365530411E1,4.660620213E0,1.399801224E-1,-1.175474167E0
1.367476484E1,9.976275444E0,1.870589137E0,-3.884149313E0
1.369422557E1,2.083251190E1,4.415954113E0,-1.292124271E0
1.371368630E1,4.144009781E1,3.664607763E0,4.611567497E0
1.373314703E1,4.676771927E1,-4.642075896E-1,-1.559522152E0
1.375260786E1,3.273082352E1,-2.467598438E0,-7.850253105E0
1.377206859E1,2.145105743E1,-4.414757729E0,1.306481123E0
1.379152932E1,1.312403393E1,-3.357728481E0,3.545564890E0
1.381099005E1,6.745367050E0,-4.773681164E-1,1.473978758E0
1.383045078E1,2.901297569E0,2.332403898E0,-5.659025311E-1
1.384991151E1,1.555334684E-2,3.793820381E0,-3.463610888E0
1.386937224E1,-2.098505497E0,4.109673023E0,-3.836891174E0
1.388883297E1,-4.074378967E0,3.497110367E0,-2.212164640E0
1.390829370E1,-6.032904148E0,1.111466169E0,-9.571290612E-1
1.392775443E1,-4.855037212E0,-1.783251047E0,-2.117647976E-1
1.394721515E1,-1.207777262E0,-2.650051117E0,1.034895778E-1
1.396667588E1,7.393822074E-1,-1.314257860E0,3.810569942E-1
1.398613661E1,1.206580877E0,1.322034448E-1,-3.828516304E-1
1.400559734E1,1.509871125E0,3.792623878E-1,-2.069193363E0
1.402505818E1,3.329014540E0,4.791627228E-1,-2.909672260E0
1.404451890E1,6.880561352E0,1.418345571E0,-2.917448997E0
1.406397963E1,1.502931881E1,2.630908489E0,-2.246860504E0
1.408344036E1,3.609034729E1,3.218346357E0,1.022931695E0
1.410290109E1,6.066941833E1,6.669993401E-1,2.398206472E0
1.412236182E1,3.066940689E1,-7.118647099E-1,1.538584948E0
1.414182255E1,1.629153252E1,-3.102294445E0,6.053841114E-1
1.416128328E1,1.148554897E1,-4.199403763E0,-1.798804402E0
1.418074401E1,9.368498802E0,-3.025724173E0,-3.577269793E0
1.420020484E1,8.520841599E0,-1.115653515E0,-4.094119549E0
1.421966557E1,6.667600155E0,1.567298889E0,-4.133002758E0
1.423912630E1,4.155136585E0,4.027718544E0,-2.085345030E0
1.425858703E1,2.931207716E-1,4.481756687E0,1.716850251E-1
1.427804776E1,-3.866801500E0,1.929213285E0,8.081758618E-1
1.429750849E1,-6.199803352E0,-1.444666624E0,-3.906283081E-1
1.431696922E1,-5.823532104E0,-2.761915445E0,-1.678565025E0
1.433642994E1,-3.982254982E0,-1.319641709E0,-1.823330879E0
1.435589068E1,-1.873580098E0,6.472585201E-1,-7.657032609E-1
1.437535140E1,3.445664644E-1,1.342971683E0,5.479564071E-1
1.439481213E1,3.853640795E0,5.312066078E-1,-3.152543902E-1
1.441427286E1,8.648857117E0,3.768695518E-2,-2.190629244E0
1.443373370E1,1.620718575E1,1.347757339E0,-2.032702923E0
1.445319443E1,3.327698517E1,1.665404558E0,3.757329702E0
1.447265515E1,4.328675842E1,9.326026440E-1,4.974678040E0
1.449211588E1,3.688595963E1,1.381855011E-1,-7.926823139E0
1.451157661E1,2.822573662E1,-2.093121529E0,-1.292124271E0
1.453103734E1,1.748555183E1,-3.052643538E0,1.427318692E0
1.455049818E1,8.505288124E0,-6.987041831E-1,1.417747438E-1
1.456995890E1,2.547159672E0,1.522433400E0,-6.352944374E-1
1.458941963E1,-3.589234129E-2,1.984846354E0,-2.207378864E0
1.460888036E1,-1.253240824E0,2.068595171E0,-3.521038532E0
1.462834109E1,-1.677966833E0,1.862214208E0,-3.324826956E0
1.464780182E1,-3.128017426E0,9.972088337E-1,-1.486541033E0
1.466726255E1,-4.640879631E0,-2.931207791E-2,1.170090318E0
1.468672328E1,-2.614757061E0,-1.103689432E0,2.230708838E0
1.470618401E1,-8.333004713E-1,-1.150947690E0,1.104287624E0
1.472564484E1,7.166503668E-1,-4.025924206E-1,-1.197009563E0
1.474510557E1,1.984248161E0,6.245267391E-1,-2.472383976E0
1.476456630E1,3.090330362E0,1.357328653E0,-1.943570137E0
1.478402703E1,5.301896572E0,2.305484533E0,-2.558525562E0
1.480348776E1,9.012566566E0,2.492124796E0,-2.679961443E0
1.482294849E1,1.745145416E1,1.747956991E0,-1.679163337E0
1.484240922E1,3.706302643E1,1.874178290E0,2.317448616E0
1.486187005E1,5.810012817E1,-4.001995921E-1,3.958925009E0
1.488133078E1,3.328894806E1,-1.188036442E0,5.048855543E-1
1.490079151E1,1.736411667E1,-1.205384374E0,-6.915257573E-1
1.492025224E1,1.108534908E1,-2.083550215E0,-2.892324448E0
1.493971297E1,9.583852768E0,-2.545365095E0,-4.945366383E0
1.495917370E1,9.379266739E0,-1.462014675E0,-4.979464054E0
1.497863443E1,7.620542049E0,1.322632670E0,-2.134397745E0
1.499809526E1,3.634697676E0,3.715455294E0,8.799605370E-1
1.501755599E1,-9.014959335E-1,3.054438114E0,1.314856052E0
1.503701672E1,-4.759922504E0,8.673982322E-2,6.897311211E-1
1.505647744E1,-6.023332596E0,-2.308475733E0,5.401797295E-1
1.507593818E1,-4.403391838E0,-3.023331404E0,-6.436693072E-1
1.509539890E1,-2.417947292E0,-1.734198213E0,-2.653640270E0
1.511485963E1,-9.056833982E-1,4.791627228E-1,-2.198405743E0
1.513432036E1,1.645065546E-1,2.072782516E0,-1.198205948E0
1.515378120E1,1.449452281E0,1.903490424E0,-1.439282775E0
1.517324193E1,3.891926050E0,1.313061476E0,-2.448455811E0
1.519270265E1,7.989634991E0,2.376072884E0,-3.296711445E0
1.521216338E1,1.573998737E1,4.819144726E0,3.260220885E-1
1.523162411E1,3.796931076E1,2.249851465E0,1.001037312E1
1.525108494E1,5.952624893E1,-6.163911343E0,-1.276570916E0
1.527054568E1,3.458286667E1,-2.723032236E0,-1.015693378E1
1.529000640E1,2.129612160E1,2.662015259E-1,-3.889533281E0
1.530946713E1,1.396630764E1,7.310073376E-1,1.146760225E0
1.532892786E1,6.863811970E0,1.423131227E0,1.003789067E0
1.534838870E1,1.901097536E0,2.249851465E0,-3.702892959E-1
1.536784943E1,-1.278963685E0,2.184048891E0,-1.781456470E0
1.538731015E1,-4.016951084E0,1.721635938E0,-2.137388945E0
1.540677088E1,-6.973283291E0,2.859423161E-1,-1.260419369E0
1.542623161E1,-7.611568928E0,-1.880758643E0,-1.040279627E0
1.544569234E1,-4.729413986E0,-2.891128063E0,-5.964110494E-1
1.546515307E1,2.261217386E-1,-1.843071699E0,3.080759048E-1
1.548461390E1,2.928216696E0,2.787638307E-1,2.416750938E-1
1.550407463E1,3.904488325E0,2.516651154E0,-5.371887088E-1
1.552353536E1,2.614757061E0,3.745963812E0,-1.453041553E0
1.554299609E1,1.097707391E0,3.376272678E0,-2.425724030E0
1.556245682E1,2.596810818E0,1.782652855E0,-3.153141975E0
1.558191755E1,9.025128365E0,-9.930214286E-2,-5.094917774E0
1.560137838E1,2.744208717E1,-3.361915946E-1,-1.389631748E0
1.562083911E1,6.633802032E1,-1.701895118E0,5.767300606E0
1.564029984E1,3.989971924E1,-1.137188911E0,1.488335729E0
1.565976057E1,1.989273071E1,-1.595414519E0,-8.219345808E-1
1.567922130E1,1.237089348E1,-2.928814888E0,-1.917249203E0
1.569868213E1,9.287142754E0,-1.957328916E0,-4.128217220E0
1.571814286E1,7.865806103E0,-9.176474810E-1,-4.596014023E0
1.573760359E1,6.600003242E0,4.809573591E-1,-3.611965895E0
1.575706432E1,4.550550461E0,2.192423820E0,-4.468596280E-1
1.577652505E1,4.923232496E-1,3.008974552E0,2.081755638E0
1.579598578E1,-4.453640938E0,1.506880045E0,2.914458036E0
1.581544661E1,-7.289135933E0,-7.501499057E-1,9.684949517E-1
1.583490734E1,-6.129215240E0,-1.470389485E0,-1.694716692E0
1.585436807E1,-3.821935892E0,-6.161518097E-1,-2.355135679E0
1.587382880E1,-1.374078393E0,4.881358147E-1,-1.922633052E0
1.589328953E1,8.327022791E-1,9.858429432E-1,-7.992027402E-1
1.591275026E1,3.311666489E0,6.382854581E-1,-7.214360237E-1
1.593221109E1,6.707680225E0,6.795616150E-1,-2.753540754E0
1.595167182E1,1.437248898E1,9.493523836E-1,5.557330847E-1
1.597113255E1,2.548356056E1,9.308080077E-1,-2.234896421E0
1.599059328E1,5.650351715E1,2.024926186E0,2.621337175E0
1.601005411E1,4.625386047E1,-2.081755698E-1,-4.182055950E0
1.602951484E1,2.413042068E1,-2.684148788E0,-5.542375565E0
1.604897557E1,1.229013538E1,-2.267797709E0,-2.910868645E0
1.606843630E1,5.559723377E0,4.582255483E-1,-3.529413417E-2
1.608789703E1,2.596212626E0,2.266003132E0,9.768698215E-1
1.610735786E1,6.418746710E-1,2.239681959E0,1.016949583E-2
1.612681859E1,-1.563111424E0,1.253839016E0,-1.454836130E0
1.614627932E1,-4.279563427E0,3.936193287E-1,-1.297508121E0
1.616574005E1,-6.050850391E0,-2.309073806E-1,-4.229314029E-1
1.618520078E1,-4.649852753E0,-6.047859192E-1,1.423729509E-1
1.620466161E1,-9.212366939E-1,-4.791627228E-1,8.093722463E-1
1.622412234E1,1.111466169E0,4.857429862E-1,3.864408433E-1
1.624358307E1,2.487339020E0,1.573879123E0,-4.025924206E-1
1.626304380E1,2.595614433E0,1.931606054E0,-4.474578202E-1
1.628250453E1,2.574677229E0,1.234098315E0,-2.022533417E0
1.630196526E1,4.886742115E0,3.786641955E-1,-3.418745279E0
1.632142609E1,9.862616539E0,5.006981492E-1,-3.029313564E0
1.634088682E1,2.172682953E1,1.234098315E0,-2.829512656E-1
1.636034755E1,4.387479782E1,1.609771490E0,4.751547337E0
1.637980828E1,5.671288681E1,-1.159920812E0,-9.343972206E-1
1.639926911E1,2.975474930E1,-5.557330847E-1,-3.256033421E0
1.641872984E1,1.533559990E1,-5.072783828E-1,-4.439882278E0
1.643819057E1,8.654241562E0,-9.726824164E-1,-4.821537495E0
1.645765130E1,6.339185238E0,-1.887937069E0,-2.568096876E0
1.647711213E1,5.483751297E0,-1.935793519E0,-6.059823632E-1
1.649657286E1,3.748356581E0,-5.204389244E-2,-1.262213886E-1
1.651603359E1,-2.063809484E-1,1.319043517E0,-5.653043389E-1
1.653549432E1,-5.408975601E0,1.445863128E0,-4.133601189E-1
1.655495505E1,-8.248658180E0,1.356730461E0,-3.684946895E-1
1.657441588E1,-7.372286797E0,8.159525394E-1,-1.252044439E0
1.659387661E1,-4.601397991E0,5.533402562E-1,-2.201396942E0
1.661333734E1,-1.188634634E0,7.555337548E-1,-2.563311338E0
1.663279807E1,2.428714991E0,1.120439172E0,-1.631905079E0
1.665225880E1,5.849255085E0,1.318445325E0,-4.785645381E-2
1.667171963E1,8.545368195E0,1.322034478E0,2.476571500E-1
1.669118036E1,1.114217854E1,7.668996453E-1,4.001995921E-1
1.671064109E1,1.871187401E1,3.930211067E-1,3.248854876E0
1.673010192E1,4.093341827E1,2.614158690E-1,6.562914371E0
1.674956265E1,4.951766968E1,1.453639716E-1,-1.212862015E1
1.676902338E1,3.499622726E1,2.373081923E0,-6.990033150E0
1.678848411E1,2.096950150E1,1.690529227E0,1.380060434E0
1.680794495E1,1.125523949E1,8.488538265E-1,2.490928411E0
1.682740568E1,4.314857483E0,-7.597211599E-1,1.650449395E0
1.684686640E1,6.999006271E-1,-4.797609448E-1,-5.347958803E-1
1.686632713E1,-1.447657704E0,1.322034448E-1,-2.204387903E0
1.688578797E1,-3.755535126E0,8.009973764E-1,-2.432304144E0
1.690524870E1,-7.022336483E0,6.592226624E-1,-2.065604210E0
1.692470942E1,-7.099504948E0,-3.433700502E-1,-2.031506538E0
1.694417015E1,-3.404388428E0,-6.646065116E-1,-9.391828775E-1
1.696363088E1,7.722834945E-1,3.613162339E-1,8.913264275E-1
1.698309172E1,3.863810301E0,1.796411633E0,1.527219057E0
1.700255245E1,4.233501434E0,2.431705952E0,4.959124923E-1
1.702201318E1,1.817947030E0,1.791027784E0,-7.902296782E-1
1.704147390E1,4.929214716E-1,7.908278704E-1,-2.200798512E0
1.706093474E1,2.938984394E0,6.460621208E-2,-2.649452925E0
1.708039547E1,1.215553856E1,-7.591229677E-1,-2.227717876E0
1.709985620E1,3.775335693E1,-9.816554785E-1,2.224726915E0
1.711931703E1,6.698706818E1,-9.672985673E-1,4.133601189E-1
1.713877776E1,3.194956589E1,2.573480844E0,-2.504687071E0
1.715823849E1,1.730010796E1,1.400997639E0,-1.849651933E0
1.717769922E1,1.193539906E1,-1.025324464E0,-2.179861546E0
1.719716005E1,8.494520187E0,-2.457428932E0,-3.018545866E0
1.721662078E1,7.081558704E0,-2.637488842E0,-1.897508383E0
1.723608151E1,5.407779217E0,-1.173081279E0,-6.041877270E-1
1.725554224E1,2.023729801E0,1.202991605E0,6.921239495E-1
1.727500307E1,-4.105485439E0,2.639881611E0,2.134397745E0
1.729446380E1,-8.916254997E0,1.456032634E0,8.691928387E-1
1.731392453E1,-7.730611801E0,-2.303091735E-1,-1.566102386E0
1.733338526E1,-4.187439442E0,1.375873014E-2,-2.037488461E0
1.735284609E1,-1.241874933E0,1.123430252E0,-2.376671076E0
1.737230682E1,8.907282352E-1,1.744965911E0,-2.066202402E0
1.739176755E1,2.612364054E0,1.227517962E0,-9.290133715E-1
1.741122828E1,6.181857109E0,6.257231236E-1,-1.629512191E0
1.743068911E1,1.117268753E1,-1.420738459E0,3.854837179E0
1.745014984E1,2.533101845E1,1.027717352E0,-3.634099483E0
1.746961057E1,5.226343536E1,3.086741209E0,4.043272018E0
1.748907140E1,4.798028183E1,5.330012441E-1,-8.178668022E0
1.750853213E1,2.518984222E1,-2.909672260E0,-7.892127514E0
1.752799286E1,1.152981567E1,-1.734198213E0,-3.722035646E0
1.754745359E1,5.479563713E0,9.966106415E-1,9.092726111E-1
1.756691442E1,3.202793121E0,2.319243431E0,3.226721287E0
1.758637515E1,1.518844128E0,1.057029366E0,1.899901152E0
1.760583588E1,-1.037886858E0,-4.456632137E-1,-9.367900491E-1
1.762529672E1,-4.804189682E0,-1.651047617E-1,-1.543968797E0
1.764475744E1,-6.209972858E0,1.080359459E0,-5.437689424E-1
1.766421818E1,-4.327419758E0,1.313659668E0,-5.318048596E-1
1.768367890E1,-7.142575383E-1,8.309076428E-1,-4.989035130E-1
1.770313974E1,1.111466169E0,1.183250785E0,-6.125625968E-1
1.772260047E1,1.641476393E0,1.740778446E0,-1.065404296E0
1.774206120E1,1.530808330E0,1.131805062E0,-1.290927768E0
1.776152192E1,1.671386600E0,-1.292124242E-1,-2.675175667E0
1.778098276E1,4.155734539E0,-4.450650215E-1,-3.435495138E0
1.780044349E1,1.067976570E1,8.440681696E-1,-2.070987940E0
1.781990422E1,2.550090981E1,2.219342947E0,1.192223907E0
1.783936505E1,5.625585938E1,1.299302697E0,2.961716175E0
1.785882578E1,4.908396912E1,-2.260020971E0,-1.951945066E0
1.787828651E1,2.329592323E1,-4.606183469E-1,-1.124626622E-1
1.789774734E1,1.357867050E1,-2.183450609E-1,-1.948355794E0
1.791720807E1,8.897112846E0,-1.349551916E0,-4.663611412E0
1.793666880E1,7.309474945E0,-2.897708178E0,-3.695116282E0
1.795612963E1,6.245266914E0,-1.820339799E0,-1.668395638E0
1.797559036E1,4.486542225E0,1.514656782E0,-5.419743061E-1
1.799505109E1,2.530409992E-1,3.352942705E0,-1.806581169E-1
1.801451192E1,-4.223331928E0,2.276770830E0,-5.587241054E-1
1.803397265E1,-6.320641041E0,6.885347366E-1,-5.778666735E-1
1.805343338E1,-5.574678421E0,-2.273181453E-2,-3.906283081E-1
1.807289411E1,-4.558925152E0,-1.226321608E-1,-2.985046208E-1
1.809235494E1,-2.435893536E0,-4.145565331E-1,-1.200000525E0
1.811181568E1,1.668993831E-1,-7.274180651E-1,-1.930409670E0
1.813127640E1,3.133999348E0,-4.342973232E-1,-1.549950838E0
1.815073724E1,6.397211552E0,5.742774606E-1,-1.893320918E0
1.817019797E1,1.277647686E1,2.087737799E0,-1.277767301E0
1.818965870E1,2.882693291E1,3.107080221E0,6.497709751E0
1.820911953E1,5.210730362E1,1.825125456E0,3.432504177E0
1.822858026E1,4.424388885E1,8.075776696E-1,-1.416072464E1
1.824804109E1,2.459462738E1,4.953143001E-1,-4.896313190E0
1.826750182E1,1.589312840E1,-3.678964674E-1,1.791625977E0
1.828696255E1,7.211967468E0,-5.688936114E-1,1.392622828E0
1.830642338E1,2.428714991E0,-1.045663476E0,1.483550072E-1
1.832588411E1,-9.373882413E-1,-1.052841991E-1,-1.660618901E0
1.834534484E1,-3.858426571E0,1.277169108E0,-1.318445325E0
1.836480568E1,-6.647859573E0,1.633101463E0,-2.470589429E-1
1.838426640E1,-6.799803734E0,2.422732860E-1,-5.431707501E-1
1.840372713E1,-4.000799656E0,-1.451845169E0,-8.542376757E-1
1.842318786E1,-1.018146038E0,-1.264008522E0,-9.182456732E-1
1.844264870E1,1.413560033E0,3.409772217E-1,-1.380658627E0
1.846210942E1,2.608774900E0,2.178066730E0,-1.729412556E0
1.848157015E1,2.394019127E0,3.113062143E0,-1.694716692E0
1.850103099E1,3.230310678E0,2.776272535E0,-2.508874655E0
1.852049172E1,7.820342541E0,1.707278967E0,-2.417947292E0
1.853995244E1,2.503012085E1,1.866999865E0,-8.374879360E-1
1.855941328E1,5.954598999E1,-1.156929731E0,5.723033428E0
1.857887401E1,4.417270279E1,-4.263411522E0,-2.695514679E0
1.859833484E1,2.181177521E1,-2.243869543E0,-2.605185747E0
1.861779557E1,1.361336613E1,-1.794616925E-3,-5.814558864E-1
1.863725630E1,9.210572243E0,1.794018745E0,-8.297112584E-1
1.865671713E1,5.098506927E0,1.773081541E0,-1.619342685E0
1.867617786E1,1.974078655E0,5.180460811E-1,-1.386640668E0
1.869563859E1,-1.432104349E0,-6.735795736E-1,-1.013360381E0
1.871509943E1,-5.252245903E0,-1.485942841E0,-4.145565331E-1
1.873456015E1,-6.666403770E0,-1.260419369E0,-5.461617708E-1
1.875402088E1,-4.599005222E0,4.073780477E-1,-5.958128572E-1
1.877348172E1,-2.670390129E0,2.133799553E0,-1.106680483E-1
1.879294244E1,-1.066600680E0,2.504687071E0,-4.917250574E-1
1.881240318E1,8.578268886E-1,1.601396561E0,-1.496710539E0
1.883186401E1,3.199203968E0,-8.973085135E-2,-1.540977836E0
1.885132474E1,7.263412952E0,-1.071386337E0,-1.973480463E0
1.887078557E1,1.737488365E1,2.991028428E-1,-3.678964674E-1
1.889024630E1,3.211048508E1,8.578268886E-1,5.933003902E0
1.890970703E1,5.074997330E1,3.035893679E0,-6.013163090E0
1.892916786E1,3.958805466E1,2.359323025E0,-6.869195461E0
1.894862859E1,2.318944168E1,-9.481559992E-1,-2.960519791E0
1.896808943E1,1.198505020E1,-7.824530005E-1,-1.607976794E0
1.898755015E1,5.292325497E0,3.032902777E-1,1.024726272E0
1.900701088E1,2.801397085E0,6.233302951E-1,1.276570916E0
1.902647172E1,1.482353687E0,3.954139352E-1,-8.973085321E-3
1.904593245E1,-6.484549642E-1,2.703889608E-1,-1.627717614E0
1.906539318E1,-4.684548378E0,8.650053740E-1,-1.967498422E0
1.908485401E1,-6.929614544E0,1.183250785E0,-5.150550604E-1
1.910431474E1,-5.265406132E0,4.839483798E-1,1.485942841E0
1.912377547E1,-1.585843205E0,-6.083751321E-1,1.199402332E0
1.914323630E1,1.309472203E0,-6.562315822E-1,-1.256231815E-1
1.916269703E1,2.115255117E0,4.121637046E-1,-1.262213945E0
1.918215786E1,2.410768747E0,1.907079697E0,-1.788036704E0
1.920161859E1,1.954936147E0,2.580659151E0,-2.197209358E0
1.922107932E1,3.541975737E0,1.589432478E0,-2.351546526E0
1.924054015E1,9.488738060E0,9.810572863E-2,-1.817348838E0
1.926000088E1,2.509053993E1,-7.836494446E-1,-2.703889608E-1
1.927946172E1,5.681697464E1,-1.783251047E0,5.127220631E0
1.929892245E1,4.759743118E1,-4.624129832E-1,-6.281159520E-1
1.931838328E1,2.532683182E1,2.137388945E0,3.655036688E-1
1.933784401E1,1.631366730E1,2.226521492E0,-2.867199659E0
1.935730474E1,1.082034397E1,-1.621137410E-1,-6.656234264E0
1.937676557E1,8.321639061E0,-2.521436930E0,-4.484149456E0
1.939622630E1,6.788437843E0,-2.134995937E0,-1.852044702E0
1.941568703E1,4.656432629E0,1.926222295E-1,-7.046862841E-1
1.943514786E1,-1.627717614E0,1.289731383E0,1.636092424E0
1.945460859E1,-8.586644173E0,9.762716293E-1,1.661815286E0
1.947406942E1,-1.101834965E1,6.957131624E-1,-1.068395257E0
1.949353015E1,-9.214161873E0,9.828519225E-1,-1.804188251E0
1.951299099E1,-5.391627789E0,1.298106313E0,-2.352144718E0
1.953245172E1,-9.463613629E-1,9.690931439E-1,-2.722434044E0
1.955191245E1,4.152743816E0,-3.948157281E-2,-1.152144074E0
1.957137328E1,9.160921097E0,-1.016949654E0,3.146561682E-1
1.959083401E1,1.240499115E1,-1.125823021E0,8.416753411E-1
1.961029484E1,1.684906006E1,-3.984049559E-1,8.727820516E-1
1.962975557E1,3.238266754E1,1.305882931E0,1.122233868E0
1.964921640E1,4.306781769E1,4.399204254E0,-3.153740168E0
1.966867713E1,3.634338760E1,3.692125320E0,-8.744570732E0
1.968813786E1,2.457189560E1,-6.580262445E-3,-2.764308453E0
1.970759870E1,1.555574036E1,-2.134995937E0,1.128814101E0
1.972705942E1,7.772486210E0,-1.751546144E0,2.285145521E0
1.974652026E1,3.234498024E0,-7.866404653E-1,1.742573142E0
1.976598099E1,-1.938186288E-1,2.392822690E-2,-2.356930375E-1
1.978544182E1,-3.963710785E0,9.523434043E-1,-2.175075769E0
1.980490255E1,-7.293921471E0,1.737787485E0,-2.945564747E0
1.982436328E1,-7.532007694E0,1.826920033E0,-2.325823545E0
1.984382411E1,-4.101297855E0,8.548358679E-1,1.884347796E-1
1.986328484E1,6.879365444E-2,-2.231307179E-1,1.197607756E0
1.988274568E1,2.463410854E0,-5.874379873E-1,8.476574421E-1
1.990220640E1,3.122633457E0,-3.170489892E-2,-2.799602449E-1
1.992166724E1,3.032304525E0,1.085145116E0,-2.391027927E0
1.994112797E1,3.620340586E0,1.854437590E0,-4.052843571E0
1.996058870E1,6.682555676E0,2.337189436E0,-3.305086374E0
1.998004953E1,1.404527092E1,2.369492531E0,7.812566161E-1
1.999951026E1,4.258626175E1,-1.052841991E-1,4.137788773E0
2.001897109E1,6.085127258E1,-4.041477680E0,-3.804588020E-1
2.003843182E1,2.936352348E1,7.902296782E-1,-3.544966698E0
2.005789265E1,1.570469284E1,2.638685226E0,-1.959123492E0
2.007735338E1,1.092802143E1,2.873780012E0,-1.196411371E0
2.009681422E1,6.924230576E0,1.274178028E0,-2.021935135E-1
2.011627494E1,4.493721008E0,-1.392024517E0,-7.788637877E-1
2.013573578E1,2.315654039E0,-2.539382935E0,-2.167897224E0
2.015519651E1,-1.848455548E0,-1.396211982E0,-1.173679471E0
2.017465734E1,-6.655636311E0,1.138983607E0,3.595215976E-1
2.019411807E1,-6.571887493E0,2.332403898E0,-3.559323549E-1
2.021357880E1,-3.992424488E0,1.313659668E0,-1.348953724E0
2.023303963E1,-1.709671736E0,4.336991012E-1,-1.683948994E0
2.025250036E1,9.810572863E-2,-1.794617064E-2,-1.911267042E0
2.027196120E1,1.359123230E0,-9.080761671E-1,-8.350951076E-1
2.029142192E1,3.673580885E0,-1.993221283E0,-4.869394004E-1
2.031088276E1,7.016952515E0,-1.856830359E0,-2.082952023E0
2.033034349E1,1.349252892E1,7.698906660E-1,-2.181057930E0
2.034980432E1,2.962194824E1,2.283350945E0,4.393222332E0
2.036926505E1,4.568975067E1,1.669592023E0,4.507479668E0
2.038872588E1,4.212504578E1,3.129213810E0,-8.398807526E0
2.040818661E1,2.869233704E1,1.338186026E0,-4.090530396E0
2.042764744E1,1.954577255E1,-1.549352705E-1,6.472585201E-1
2.044710818E1,9.895518303E0,3.457628787E-1,2.626122832E-1
2.046656901E1,3.022135019E0,9.266205430E-1,4.187439755E-2
2.048602974E1,-5.347958803E-1,3.804588020E-1,-6.586244106E-1
2.050549057E1,-3.375076294E0,-3.810569942E-1,-2.151745796E0
2.052495130E1,-6.929614544E0,-1.017547846E0,-2.297109842E0
2.054441213E1,-8.552546501E0,-1.406381488E0,-1.451246977E0
2.056387286E1,-6.139384747E0,-1.295713425E0,9.505487680E-1
2.058333370E1,-1.794616938E0,-9.332008362E-1,1.584048629E0
2.060279443E1,8.853443861E-1,-1.238285750E-1,7.022934556E-1
2.062225526E1,2.495115757E0,1.223330617E0,-6.454638839E-1
2.064171599E1,2.906681299E0,2.731407166E0,-1.666002750E0
2.066117682E1,3.412763357E0,3.387040377E0,-2.949752092E0
2.068063755E1,7.073183537E0,3.232105255E0,-4.513461590E0
2.070009838E1,1.577647781E1,2.520240545E0,-3.976871252E0
2.071955911E1,3.426282883E1,2.853440940E-1,1.768894196E0
2.073901995E1,5.916912079E1,-5.075176716E0,2.316850424E0
2.075848068E1,3.650191116E1,-5.906682491E0,-3.427718580E-1
2.077794151E1,1.708714676E1,-8.249256015E-1,-2.656631231E0
2.079740224E1,1.184148121E1,1.423729420E0,-4.960919380E0
2.081686307E1,7.771289825E0,2.251646042E0,-4.293322086E0
2.083632380E1,6.882356167E0,1.240080357E0,-1.599003673E0
2.085578463E1,6.077171326E0,-5.934200287E-1,-3.499503136E-1
2.087524536E1,3.690928936E0,-1.727019787E0,-3.421736360E-1
2.089470620E1,-5.682953596E-1,-1.630708575E0,-1.106680483E-1
2.091416692E1,-4.454239368E0,-2.464607358E-1,-1.692921966E-1
2.093362776E1,-5.484947681E0,1.646261930E0,-1.576271892E0
2.095308859E1,-4.835296154E0,2.816352367E0,-1.323829174E0
2.097254932E1,-4.400400639E0,2.833700180E0,-3.996013701E-1
2.099201015E1,-2.436491728E0,1.550549030E0,-4.486542568E-2
2.101147088E1,9.152546525E-1,-5.377869010E-1,6.921239495E-1
2.103093172E1,4.141377926E0,-2.327019930E0,1.974078715E-1
2.105039244E1,7.308278561E0,-2.489133835E0,-1.533201098E0
2.106985328E1,1.209452248E1,-1.055832982E0,-2.044068813E0
2.108931401E1,2.642573547E1,1.328016520E-1,1.058824062E0
2.110877484E1,5.317509842E1,3.002992392E0,2.291725874E0
2.112823568E1,4.340879440E1,3.437887907E0,-1.585843205E0
2.114769640E1,2.450310135E1,8.937192559E-1,-8.070392609E0
2.116715724E1,1.550728512E1,1.429711580E-1,-1.960319996E0
2.118661797E1,9.834501266E0,-7.519445419E-1,3.720839262E0
2.120607880E1,5.811567783E0,-3.457628787E-1,1.652842283E0
2.122553953E1,2.775076151E0,-2.925225794E-1,-2.315055877E-1
2.124500036E1,-9.373882413E-1,4.857429862E-1,-1.874776483E0
2.126446120E1,-6.526423931E0,1.802393675E0,-2.629712105E0
2.128392192E1,-8.395816803E0,2.162513494E0,-2.668595552E0
2.130338276E1,-5.402395248E0,9.535398483E-1,-7.435696125E-1
2.132284349E1,-1.554138303E0,-5.000999570E-1,1.372283816E0
2.134230432E1,1.051047325E0,-8.578268886E-1,1.782054663E0
2.136176505E1,2.469991207E0,-3.224328458E-1,6.287141442E-1
2.138122588E1,2.274976015E0,6.065805554E-1,-9.744769931E-1
2.140068661E1,6.849454641E-1,1.773679733E0,-2.331207514E0
2.142014744E1,1.904686809E0,2.484348059E0,-3.160918713E0
2.143960828E1,8.914461136E0,2.265404940E0,-4.469792843E0
2.145906901E1,3.260340500E1,2.982055187E0,-4.522434771E-1
2.147852984E1,7.087181854E1,-1.339980721E0,6.017350674E0
2.149799057E1,3.554777145E1,-3.986442566E0,3.451646566E-1
2.151745140E1,1.805564117E1,-3.878167391E0,-5.647061467E-1
2.153691224E1,1.151964664E1,-2.481955290E0,-2.207378864E0
2.155637297E1,8.801998138E0,-7.417750359E-1,-3.025724173E0
2.157583380E1,6.421139717E0,7.728816867E-1,-2.388036966E0
2.159529453E1,3.648456335E0,1.923231244E0,-2.105683982E-1
2.161475536E1,-1.621137381E0,2.228316069E0,3.174079180E0
2.163421609E1,-7.274778843E0,6.945167780E-1,3.439682484E0
2.165367693E1,-8.356334686E0,-2.078166485E0,-1.286740422E0
2.167313776E1,-5.965306759E0,-3.183052301E0,-4.037888050E0
2.169259849E1,-3.236890793E0,-1.450050473E0,-3.441477060E0
2.171205932E1,-1.499701619E0,6.939185858E-1,-2.243869543E0
2.173152005E1,1.226919770E0,1.410568953E0,-1.816152334E0
2.175098088E1,4.878366947E0,3.361915946E-1,-8.955138922E-1
2.177044161E1,1.069292641E1,-8.356932998E-1,-2.201995134E0
2.178990245E1,2.265045929E1,2.563909531E0,-2.080559254E0
2.180936328E1,4.156751633E1,5.474180222E0,9.817152977E0
2.182882401E1,4.473979950E1,4.194019794E0,-3.796811342E0
2.184828484E1,3.235993576E1,-1.281954765E0,-9.559326172E0
2.186774568E1,2.202294159E1,-3.574877024E0,-4.679762840E0
2.188720640E1,1.395553970E1,-2.104487419E0,-1.866999865E0
2.190666724E1,5.796014786E0,6.741777658E-1,5.754738450E-1
2.192612797E1,1.232303619E0,2.767897606E0,2.420340061E0
2.194558880E1,-2.820539713E0,3.299104214E0,3.074777126E-1
2.196504963E1,-6.434898376E0,2.099701881E0,-2.235494614E0
2.198451036E1,-7.983054638E0,2.644068897E-1,-3.105883837E0
2.200397120E1,-6.267400742E0,-1.417149186E0,-1.908276081E0
2.202343203E1,-2.111665964E0,-2.733201742E0,7.477570772E-1
2.204289276E1,7.986045480E-1,-3.070589542E0,1.052243710E0
2.206235359E1,2.160120726E0,-1.889731646E0,-5.383850932E-1
2.208181432E1,2.766103029E0,9.302098155E-1,-1.622931957E0
2.210127515E1,2.504687071E0,3.638286829E0,-1.525424480E0
2.212073599E1,2.749951363E0,4.049253941E0,-1.944766641E0
2.214019672E1,6.338587284E0,2.602792740E0,-2.899502754E0
2.215965755E1,1.772423553E1,2.583650351E0,-2.113460541E0
2.217911828E1,4.624249268E1,1.919043779E0,3.610769272E0
2.219857911E1,5.477051544E1,-2.107478619E0,1.649851203E0
2.221803994E1,2.811087990E1,-2.576471806E0,-2.078166485E0
2.223750078E1,1.731266975E1,-3.111865759E0,-2.258824587E0
2.225696151E1,1.231944752E1,-1.956730723E0,-3.854238987E0
2.227642234E1,9.389435768E0,-2.805584669E-1,-3.505485058E0
2.229588307E1,7.061219692E0,1.267597795E0,-1.910070658E0
2.231534390E1,3.875774384E0,2.315654039E0,7.298108935E-2
2.233480474E1,-8.943174481E-1,2.624328136E0,1.805982947E0
2.235426547E1,-6.411568165E0,1.983649969E0,6.801598072E-1
2.237372630E1,-7.889734268E0,-9.571290761E-2,-2.287538528E0
2.239318713E1,-5.178068161E0,-1.588235974E0,-2.047059774E0
2.241264786E1,-1.841875196E0,-1.385444283E0,-3.972085714E-1
2.243210870E1,2.650051117E-1,-4.336991012E-1,4.540380836E-1
2.245156943E1,1.733001828E0,1.339980662E-1,3.535395563E-1
2.247103026E1,2.653042078E0,-8.315058798E-2,2.602194548E-1
2.249049109E1,2.900100946E0,-8.291130662E-1,-5.066801906E-1
2.250995182E1,5.461019516E0,-1.151545882E0,-3.058625460E0
2.252941265E1,1.264188004E1,-1.058823988E-1,-4.183252335E0
2.254887349E1,3.417668533E1,6.939185858E-1,2.122433662E0
2.256833432E1,6.064369583E1,2.985644341E0,2.840280533E0
2.258779505E1,3.863631058E1,1.551745534E0,-6.353542328E0
2.260725588E1,2.150489616E1,-1.508674622E0,-8.018348694E0
2.262671672E1,1.346022511E1,-1.953141451E0,-2.359921217E0
2.264617745E1,9.090332985E0,-4.127618968E-1,1.447657704E0
2.266563828E1,5.225924492E0,1.642074585E0,1.393221021E0
2.268509911E1,1.664208174E0,2.182254314E0,3.098705411E-1
2.270455984E1,-3.076571703E0,1.455434322E0,-1.371685624E0
2.272402068E1,-7.313662529E0,5.814558864E-1,-2.486142635E0
2.274348151E1,-7.131807804E0,-4.767699242E-1,-2.736192703E0
2.276294224E1,-4.135993958E0,-1.633699656E0,-9.708877802E-1
2.278240307E1,-4.815555513E-1,-2.125424623E0,7.710871100E-1
2.280186390E1,1.846660852E0,-1.145563841E0,1.708475351E0
2.282132463E1,2.075175524E0,5.515456200E-1,1.083948612E0
2.284078547E1,7.896314561E-2,1.822732687E0,-1.697707653E0
2.286024630E1,-6.077769399E-1,2.129014015E0,-4.316651821E0
2.287970703E1,2.107478619E0,1.598405480E0,-4.564309120E0
2.289916786E1,7.682755470E0,1.068993568E0,-3.049054146E0
2.291862870E1,2.482194519E1,1.473978758E0,-1.214357466E-1
2.293808953E1,6.290790558E1,-8.434699476E-2,2.976073265E0
2.295755026E1,4.431507492E1,-3.928416491E0,9.990034252E-2
2.297701109E1,2.252603149E1,-2.883949518E0,-2.854039192E0
2.299647192E1,1.438744450E1,-2.317448616E0,-3.656831264E0
2.301593265E1,1.087119102E1,-7.471588850E-1,-3.333201885E0
2.303539349E1,8.513064384E0,2.829512656E-1,-2.080559254E0
2.305485432E1,5.293521881E0,8.093722463E-1,-1.719841242E0
2.307431515E1,1.289133191E0,1.259222865E0,-3.433700502E-1
2.309377588E1,-4.712066174E0,1.335793257E0,2.498106956E0
2.311323672E1,-8.540582657E0,3.499503136E-1,1.599601984E0
2.313269755E1,-5.699703693E0,-9.948160052E-1,-1.688136339E0
2.315215828E1,-2.969492912E0,-6.789634228E-1,-2.032702923E0
2.317161911E1,-1.205982566E0,7.579265833E-1,-1.388435364E0
2.319107995E1,6.993024349E-1,1.397408366E0,-1.077368379E0
2.321054068E1,1.886142492E0,8.452646136E-1,-1.160518974E-1
2.323000151E1,3.196810961E0,-6.705885530E-1,2.392822653E-1
2.324946234E1,6.930810928E0,-1.282552958E0,-2.166700840E0
2.326892318E1,1.679582024E1,1.096511006E0,-3.568296671E0
2.328838390E1,3.812783432E1,3.492324591E0,3.921238184E0
2.330784474E1,5.615835190E1,5.357530117E0,-6.635297298E0
2.332730557E1,3.433161926E1,1.958525300E0,-9.194420815E0
2.334676640E1,1.762194252E1,-5.874379873E-1,-5.618945599E0
2.336622724E1,9.548559189E0,-8.847461939E-1,-1.076770201E-2
2.338568797E1,4.429712772E0,-4.450650215E-1,3.329014540E0
2.340514880E1,1.784447432E0,-1.339980662E-1,2.444866419E0
2.342460963E1,-6.077769399E-1,4.366901219E-1,-3.631108403E-1
2.344407036E1,-3.489931822E0,1.022333503E0,-2.206182480E0
2.346353120E1,-5.904289722E0,1.439282775E0,-2.297708035E0
2.348299203E1,-5.649454117E0,1.177866936E0,-9.481559992E-1
2.350245286E1,-2.523829699E0,4.462614357E-1,1.884347796E-1
2.352191359E1,1.627119333E-1,-3.170489892E-2,1.770688742E-1
2.354137442E1,1.661217093E0,5.934200287E-1,5.383851007E-3
2.356083526E1,2.610569477E0,1.444068432E0,-6.472585201E-1
2.358029609E1,3.375076294E0,1.822732687E0,-2.030309916E0
2.359975682E1,5.332405090E0,1.591227055E0,-3.241078377E0
2.361921765E1,1.046859932E1,8.967102766E-1,-4.486542225E0
2.363867849E1,2.350409889E1,4.677968323E-1,-3.146561861E0
2.365813932E1,4.940819931E1,-1.970489502E0,-2.997010350E-1
2.367760015E1,4.941657257E1,-1.712064624E0,7.944171429E-1
2.369706088E1,2.291486549E1,1.962114573E0,1.115055323E0
2.371652172E1,1.238285732E1,1.055234790E0,2.273181453E-2
2.373598255E1,8.099106789E0,-3.014956415E-1,-4.374079704E0
2.375544338E1,7.104888439E0,-1.038485050E0,-4.947160721E0
2.377490411E1,5.678168297E0,-1.866401732E-1,-2.425724030E0
2.379436494E1,3.689732552E0,2.142174482E0,1.226321608E-1
2.381382578E1,-3.822534084E-1,3.141177893E0,6.568298340E-1
2.383328661E1,-5.321039200E0,1.189831018E0,-8.207381964E-1
2.385274734E1,-7.391428947E0,-2.033301115E0,-2.016551256E0
2.387220818E1,-5.642873764E0,-3.248854876E0,-1.066002488E0
2.389166901E1,-3.163909674E0,-1.692921996E0,-1.561316848E-1
2.391112984E1,-7.794619799E-1,3.308077157E-1,1.734796464E-1
2.393059057E1,1.537986755E0,9.912267923E-1,3.260220885E-1
2.395005140E1,4.229313850E0,1.866401732E-1,-1.555932879E0
2.396951224E1,9.052047729E0,-7.238288224E-2,-4.325026989E0
2.398897307E1,1.957209206E1,2.230110645E0,-1.835893154E0
2.400843390E1,3.848137283E1,3.735794306E0,7.762316704E0
2.402789474E1,4.953561783E1,3.340380430E0,1.719243050E0
2.404735547E1,3.677648926E1,-3.524627686E0,-5.782854080E0
2.406681630E1,1.991665840E1,-4.908277512E0,-6.607181549E0
2.408627713E1,1.315932846E1,-4.963312149E0,-3.856033802E0
2.410573797E1,7.469794273E0,-1.939382792E0,4.618147612E-1
2.412519880E1,3.113660574E0,2.118246317E0,1.738983870E0
2.414465963E1,-1.185045362E0,4.698905468E0,4.755735099E-1
2.416412036E1,-5.199005604E0,4.947759151E0,-1.844866276E0
2.418358120E1,-6.323632240E0,2.860619545E0,-2.941975355E0
2.420304203E1,-4.991427898E0,3.481557071E-1,-3.050250769E0
2.422250286E1,-2.453241348E0,-1.583450437E0,-1.822134495E0
2.424196359E1,1.854437590E-1,-2.064407825E0,4.474578202E-1
2.426142442E1,1.853839397E0,-1.065404296E0,1.777867198E0
2.428088526E1,2.321038008E0,2.368894368E-1,1.001396298E0
2.430034609E1,1.721037745E0,1.311266780E0,-1.854437590E-1
2.431980692E1,2.515454769E0,2.047657967E0,-1.759921074E0
2.433926776E1,6.627520561E0,2.415554523E0,-3.434298754E0
2.435872849E1,1.934597015E1,1.469791293E0,-3.216551781E0
2.437818932E1,5.063571548E1,-2.680559635E0,1.499103427E0
2.439765015E1,5.316074371E1,-4.639683247E0,-1.975275040E0
2.441711099E1,2.343171501E1,1.414756417E0,-2.091326952E0
2.443657182E1,1.136052418E1,3.571287870E0,-1.615155339E-1
2.445603265E1,7.875377655E0,2.616551638E0,-1.287338614E0
2.447549349E1,6.329015732E0,-5.371887088E-1,-3.215953588E0
2.449495422E1,6.026922226E0,-3.680759430E0,-2.985046148E0
2.451441505E1,4.524827480E0,-3.555734396E0,-8.937192559E-1
2.453387588E1,1.494915962E0,-1.314257860E0,7.968099117E-1
2.455333672E1,-3.467798233E0,3.511467278E-1,2.051845491E-1
2.457279755E1,-5.483152866E0,1.024128079E0,-2.349751949E0
2.459225828E1,-4.369892120E0,2.160120726E0,-2.134995937E0
2.461171911E1,-3.439682484E0,3.111267567E0,-6.759724021E-2
2.463117995E1,-2.170888424E0,2.452643156E0,3.816552162E-1
2.465064078E1,5.682953820E-2,3.948157430E-1,-5.407779217E-1
2.467010161E1,3.588635683E0,-9.284151793E-1,-9.930213690E-1
2.468956244E1,9.815358162E0,-5.036891699E-1,-8.763712645E-1
2.470902328E1,2.243988991E1,4.169493318E-1,4.362115860E0
2.472848411E1,4.206402588E1,-2.734996319E0,-9.278169870E-1
2.474794484E1,5.338447189E1,-3.526422262E0,-1.094477081E1
2.476740568E1,3.063171959E1,8.482556343E-1,-7.195816040E0
2.478686651E1,1.674138451E1,5.047060966E0,-1.974078655E0
2.480632734E1,7.980661869E0,5.794219971E0,2.425125837E0
2.482578818E1,4.290929317E0,2.639881611E0,1.693520188E0
2.484524901E1,2.304886341E0,-8.799605370E-1,-9.320043921E-1
2.486470984E1,5.844469070E-1,-2.486740828E0,-3.708276987E0
2.488417068E1,-3.247658491E0,-1.788036704E0,-3.314059258E0
2.490363140E1,-6.652047157E0,4.576273263E-1,-1.135394335E0
2.492309224E1,-6.765706062E0,1.833500385E0,9.044869542E-1
2.494255307E1,-3.556332588E0,1.001994491E0,1.214357495E0
2.496201390E1,-5.694918036E-1,-3.445664644E-1,-1.070788130E-1
2.498147474E1,1.577468276E0,-3.750749528E-1,-1.507478237E0
2.500093557E1,2.518445730E0,1.052243710E0,-1.961516380E0
2.502039640E1,3.177070379E0,2.723630428E0,-2.023729801E0
2.503985713E1,5.214558601E0,4.110270977E0,-3.212364435E0
2.505931797E1,9.712467194E0,3.899104595E0,-3.910470486E0
2.507877880E1,1.700938034E1,7.657032460E-2,-2.093121529E0
2.509823963E1,3.781437302E1,-7.757531166E0,-6.239284873E-1
2.511770047E1,5.962973785E1,-1.296191978E1,-1.156331539E0
2.513716130E1,2.921815872E1,-2.755933523E0,-1.639681697E0
2.515662213E1,1.580937958E1,4.116851330E0,-1.830509305E-1
2.517608297E1,1.131505966E1,3.927818298E0,-2.779861689E0
2.519554380E1,8.970093727E0,4.408775866E-1,-3.957728624E0
2.521500463E1,8.140980721E0,-2.120639086E0,-2.205584288E0
2.523446547E1,6.517450809E0,-1.637887120E0,-1.070788130E-1
2.525392620E1,2.057229280E0,2.027917206E-1,1.709073544E0
2.527338703E1,-3.573680639E0,5.096712112E-1,1.369890928E0
2.529284786E1,-7.165905476E0,-6.993024349E-1,-8.943174481E-1
2.531230870E1,-6.610172749E0,-1.155733347E0,-2.747558594E0
2.533176953E1,-3.900899172E0,3.900300860E-1,-2.078166485E0
2.535123036E1,-1.490130305E0,2.324627161E0,-7.459624410E-1
2.537069120E1,5.042873621E-1,2.686541557E0,3.343969584E-1
2.539015203E1,1.925025821E0,6.424728632E-1,-2.572284266E-2
2.540961286E1,3.912265062E0,-1.950150490E0,-2.550150633E0
2.542907370E1,9.082556725E0,-2.568695068E0,-4.901697159E0
2.544853453E1,2.044248199E1,8.536394835E-1,-8.727820516E-1
2.546799526E1,4.172364807E1,5.634499073E0,9.484550476E0
2.548745609E1,4.987300491E1,6.458826542E0,-1.006780148E0
2.550691693E1,3.310889053E1,-2.000998020E0,-1.134855938E1
2.552637776E1,1.903490448E1,-5.126622677E0,-5.589633465E0
2.554583859E1,1.113739300E1,-4.683950424E0,-1.220937729E0
2.556529943E1,5.056632519E0,-8.392825127E-1,1.451246977E0
2.558476026E1,1.676770449E0,2.616551638E0,3.285345554E0
2.560422109E1,-2.187039852E0,4.313062668E0,1.748555183E0
2.562368193E1,-6.123831272E0,3.785445452E0,-8.015955687E-1
2.564314276E1,-6.752545357E0,1.031904817E0,-2.516052961E0
2.566260359E1,-4.829314232E0,-1.721037745E0,-2.742174864E0
2.568206442E1,-2.303689957E0,-2.411965132E0,-1.470389485E0
2.570152526E1,5.078766346E-1,-1.445863128E0,-2.213360928E-2
2.572098609E1,2.017747641E0,2.440679073E-1,-2.889333367E-1
2.574044692E1,2.353341103E0,1.749153376E0,-1.098903775E0
2.575990765E1,3.314657450E0,2.707478762E0,-3.231507063E0
2.577936849E1,4.576273441E0,3.325425386E0,-5.470590591E0
2.579882932E1,9.024530411E0,2.821137905E0,-4.759324074E0
2.581829015E1,2.400539589E1,3.224328458E-1,-9.810572863E-1
2.583775099E1,5.594598770E1,-3.617947817E0,5.334797859E0
2.585721182E1,4.393641281E1,-1.101894855E0,5.687141418E0
2.587667265E1,2.237947273E1,1.289133191E0,1.305284739E0
2.589613349E1,1.261196995E1,5.096712112E-1,-1.284945726E0
2.591559432E1,7.819744587E0,4.905286431E-1,-3.916452408E0
2.593505515E1,5.435296535E0,6.664010882E-1,-5.501697540E0
2.595451599E1,5.193621635E0,5.389832854E-1,-5.562714577E0
2.597397682E1,4.377070904E0,8.476574421E-1,-3.631706476E0
2.599343765E1,2.678166628E0,1.033101201E0,5.736792088E-1
2.601289849E1,-1.621137381E0,1.537388563E-1,4.073780537E0
2.603235932E1,-4.641477585E0,-2.400001049E0,3.171686411E0
2.605182015E1,-4.640281200E0,-4.064807415E0,-4.007977843E-1
2.607128099E1,-3.747758389E0,-2.746960402E0,-2.343171597E0
2.609074182E1,-2.444268227E0,-4.851447940E-1,-3.051447153E0
2.611020265E1,-5.694918036E-1,7.866404653E-1,-3.278765202E0
2.612966349E1,2.243271112E0,5.216353536E-1,-2.578864574E0
2.614912422E1,7.794021606E0,2.524427772E-1,-2.815753937E0
2.616858505E1,1.855813408E1,1.272383451E0,-1.855633974E0
2.618804588E1,3.259323502E1,1.729412556E0,6.876972198E0
2.620750672E1,4.845106888E1,2.270788670E0,2.721835852E0
2.622696755E1,3.720719528E1,-1.956132501E-1,-7.983652592E0
2.624642838E1,2.495833588E1,-1.811366796E0,-4.942973614E0
2.626588922E1,1.613719559E1,-1.076770186E0,-1.771286964E0
2.628535005E1,7.674380302E0,1.914258115E-2,2.757728100E-1
2.630481088E1,2.412563324E0,8.237292171E-1,6.083751321E-1
2.632427172E1,-2.567498684E0,1.153340459E0,-1.647458434E0
2.634373255E1,-6.889534473E0,1.899901152E0,-4.109673023E0
2.636319338E1,-7.022934437E0,2.606382132E0,-3.806382656E0
2.638265422E1,-5.308476925E0,2.370688915E0,-9.218349457E-1
2.640211505E1,-2.490330219E0,4.169493318E-1,1.595414519E0
2.642157588E1,6.011967063E-1,-1.905285001E0,1.552941918E0
2.644103672E1,2.358724833E0,-2.295315027E0,2.853440940E-1
2.646049755E1,2.885744095E0,-2.943171859E-1,-6.346961856E-1
2.647995838E1,2.292922258E0,2.436491728E0,-2.303689957E0
2.649941922E1,4.015156269E0,3.900899172E0,-3.943371773E0
2.651888005E1,8.601598740E0,3.669393539E0,-4.676771641E0
2.653834088E1,1.828774452E1,1.067797065E0,-2.912065268E0
2.655780172E1,4.527399826E1,-3.951148272E0,-1.033699393E0
2.657726255E1,5.798886108E1,-7.561319351E0,-3.332005441E-1
2.659672338E1,2.649393082E1,-6.963114142E-1,5.533402562E-1
2.661618422E1,1.432762337E1,5.359922647E-1,6.771687865E-1
2.663564505E1,9.260223389E0,-1.426122308E0,-3.110669374E0
2.665510588E1,6.942176819E0,-3.250051260E0,-5.917450428E0
2.667456672E1,6.813562393E0,-2.609373093E0,-4.322634220E0
2.669402755E1,4.747360229E0,1.206580877E0,-7.310073376E-1
2.671348838E1,1.824527234E-1,4.432703972E0,1.695913076E0
2.673294922E1,-4.431507587E0,3.758526087E0,8.512466550E-1
2.675241005E1,-6.993024349E0,-3.164508045E-1,-1.802393675E0
2.677187088E1,-5.907878876E0,-3.742374659E0,-2.831307411E0
2.679133172E1,-3.366103172E0,-3.031108141E0,-1.516451359E0
2.681079255E1,-1.637887120E0,-2.051845491E-1,3.487538993E-1
2.683025338E1,7.118647546E-2,1.694118381E0,1.328016520E0
2.684971422E1,2.423331022E0,1.410568953E0,-3.326023519E-1
2.686917505E1,6.321238995E0,4.546362907E-2,-3.705883980E0
2.688863588E1,1.459322739E1,2.733799815E-1,-4.518247128E0
2.690809672E1,3.033381271E1,3.010769129E0,3.745365620E0
2.692755755E1,4.786303329E1,7.255636692E0,5.751149178E0
2.694701849E1,4.459682846E1,1.043270707E0,-5.343770981E0
2.696647932E1,2.618525696E1,-5.872584820E0,-7.887939930E0
2.698594015E1,1.474576950E1,-7.599604607E0,-4.294518471E0
2.700540099E1,5.886343479E0,-3.761517286E0,1.926222295E-1
2.702486182E1,1.431506157E0,4.516452849E-1,2.861815929E0
2.704432265E1,-2.072184324E0,3.040679455E0,1.505085468E0
2.706378349E1,-5.035097122E0,3.939184189E0,-1.029511929E0
2.708324432E1,-5.200799942E0,3.317050457E0,-2.123031855E0
2.710270515E1,-4.144967079E0,2.020140409E0,-2.878565550E0
2.712216599E1,-2.309073925E0,1.375873089E-1,-2.490330219E0
2.714162682E1,7.040880919E-1,-5.563312769E-1,-7.369893789E-1
2.716108765E1,2.498106956E0,1.037288666E0,5.282155871E-1
2.718054849E1,2.743969440E0,2.491526604E0,8.614161611E-1
2.720000932E1,2.712862730E0,2.553740025E0,-6.628118753E-1
2.721947015E1,3.062214851E0,1.145563841E0,-4.180859566E0
2.723893099E1,6.597609997E0,-7.160521746E-1,-5.915057659E0
2.725839182E1,1.571306801E1,-2.289931297E0,-1.748555183E0
2.727785265E1,4.562155533E1,-4.712066174E0,3.524029493E0
2.729731359E1,6.005984879E1,-5.097310543E0,4.887340367E-1
2.731677443E1,2.710469818E1,8.524430394E-1,-1.326221943E0
2.733623526E1,1.238465214E1,2.006381750E0,-1.704886109E-1
2.735569609E1,7.250850677E0,4.534398913E-1,-3.912265003E-1
2.737515693E1,4.432703972E0,-1.460219979E0,-1.234696507E0
2.739461776E1,3.401995659E0,-2.688934565E0,-1.872383714E0
2.741407859E1,2.536990166E0,-1.618146300E0,-2.069791555E0
2.743353943E1,-6.699903607E-1,1.188036442E0,-7.651050687E-1
2.745300026E1,-5.274379253E0,3.023331404E0,-5.479564071E-1
2.747246109E1,-5.282155991E0,2.191825628E0,-1.800000787E0
2.749192193E1,-2.638685226E0,9.918249846E-1,-1.762313843E0
2.751138276E1,-2.009970993E-1,6.646065116E-1,-5.204389095E-1
2.753084359E1,9.284151793E-1,2.506481707E-1,8.153542876E-1
2.755030442E1,4.713860750E-1,-1.107876897E0,1.969891191E0
2.756976526E1,1.768894196E0,-2.612364054E0,4.971089065E-1
2.758922609E1,7.365706444E0,-1.304686546E0,-3.335594654E0
2.760868703E1,2.400479698E1,2.724228621E0,-6.011967063E-1
2.762814786E1,4.970012283E1,4.733601570E0,3.407379389E0
2.764760870E1,5.301298523E1,2.606382132E0,-9.501898766E0
2.766706953E1,2.957409096E1,-2.191825628E0,-8.343173981E0
2.768653036E1,1.576451397E1,-3.619144201E0,-2.284547329E0
2.770599120E1,6.043671608E0,-1.332203984E0,2.511865616E0
2.772545203E1,1.673181176E0,4.564309120E-1,2.908475876E0
2.774491286E1,3.367897868E-1,1.538584948E0,-8.733802289E-2
2.776437370E1,-1.561915040E0,2.088934183E0,-2.772084951E0
2.778383463E1,-5.719444275E0,1.832303882E0,-3.084348440E0
2.780329547E1,-6.705287457E0,9.990034699E-1,-1.746162295E0
2.782275630E1,-3.512663603E0,3.774677813E-1,6.580262631E-2
2.784221713E1,1.513460279E-1,3.595215976E-1,1.684547186E0
2.786167797E1,1.710868239E0,1.022931695E0,1.672582984E0
2.788113880E1,1.922633052E0,1.847259045E0,-3.816552162E-1
2.790059963E1,1.554736495E0,2.255833626E0,-3.447459221E0
2.792006047E1,2.662613392E0,2.139781713E0,-4.347758770E0
2.793952130E1,5.311468124E0,1.755733609E0,-4.600201607E0
2.795898213E1,1.039202881E1,2.261217386E-1,-2.449054003E0
2.797844307E1,2.105384827E1,-3.047857761E0,-1.430309772E0
2.799790390E1,4.525365829E1,-6.373881340E0,-1.136590719E0
2.801736474E1,5.139663315E1,-4.302295208E0,3.092723191E-1
2.803682557E1,2.637728119E1,2.597409010E0,8.799605370E-1
2.805628640E1,1.465244961E1,2.712264538E0,-8.727820516E-1
2.807574724E1,9.824331284E0,-1.716850251E-1,-2.597409010E0
2.809520807E1,8.456234932E0,-2.598605394E0,-2.839084148E0
2.811466890E1,7.651648521E0,-2.903092146E0,-2.959323406E0
2.813412984E1,5.169095039E0,-3.212364316E-1,-1.777269006E0
2.815359068E1,6.077769399E-1,2.484946251E0,-2.835494876E-1
2.817305151E1,-4.575675011E0,3.387040377E0,3.631108403E-1
2.819251234E1,-6.631109715E0,1.717448473E0,2.656033039E-1
2.821197318E1,-4.968696117E0,-3.924229145E-1,-7.214360237E-1
2.823143401E1,-2.951546669E0,-4.935196638E-1,-1.356132269E0
2.825089484E1,-1.655235052E0,5.647061467E-1,-1.460219979E0
2.827035568E1,-6.640082598E-2,8.213363886E-1,-1.418345571E0
2.828981651E1,2.651845694E0,-1.567298770E-1,-1.479362607E0
2.830927734E1,6.590431690E0,-7.148557901E-1,-1.587637782E0
2.832873828E1,1.321316624E1,5.844469070E-1,-2.383849621E0
2.834819911E1,2.471068001E1,4.947759151E0,3.470789194E0
2.836765995E1,4.122354889E1,8.762516975E0,6.665207386E0
2.838712078E1,4.444249344E1,2.694318295E0,-1.109671497E1
2.840658172E1,3.086920738E1,-4.367499352E0,-8.271389961E0
2.842604255E1,1.811306953E1,-5.721239090E0,-1.781456470E0
2.844550338E1,8.286943436E0,-2.296511650E0,1.225723386E0
2.846496422E1,2.051845312E0,1.546361685E0,3.979862213E0
2.848442505E1,-1.701895118E0,4.149752617E0,2.461616278E0
2.850388588E1,-5.054837704E0,4.213162422E0,-9.750752449E-1
2.852334672E1,-6.137589931E0,1.933400750E0,-4.237689018E0
2.854280755E1,-5.913861275E0,-1.034297585E0,-4.524229527E0
2.856226849E1,-2.928216696E0,-2.811566591E0,-1.387837172E0
2.858172932E1,8.608179688E-1,-2.158924341E0,1.439880967E0
2.860119015E1,3.168097258E0,-6.155536175E-1,1.777867198E0
2.862065099E1,3.380460262E0,5.222335458E-1,3.649054468E-1
2.864011182E1,2.651845694E0,1.466800332E0,-1.986042738E0
2.865957265E1,3.141177893E0,2.139781713E0,-3.960719585E0
2.867903349E1,5.681159019E0,2.111067772E0,-4.585246563E0
2.869849443E1,1.278006554E1,1.524227977E0,-2.918047190E0
2.871795526E1,3.618545914E1,5.808576941E-1,2.806182861E0
2.873741609E1,6.645466614E1,-5.716453075E0,2.522035122E0
2.875687692E1,3.279782104E1,-1.515853167E0,-6.532405615E-1
2.877633776E1,1.475055504E1,1.578664780E0,-1.563709617E0
2.879579870E1,7.813164234E0,2.077568293E0,-2.918047190E0
2.881525953E1,4.022335052E0,2.142772675E0,-3.051447153E0
2.883472036E1,2.528615236E0,1.395613790E0,-2.247458696E0
2.885418120E1,2.739781857E0,8.380861282E-1,-1.287936807E0
2.887364203E1,1.088734269E0,6.077769399E-1,3.206382394E-1
2.889310286E1,-3.051447153E0,-2.596212626E-1,8.512466550E-1
2.891256380E1,-5.404788017E0,-1.401595831E0,-5.096712112E-1
2.893202463E1,-3.897309780E0,-1.520040631E0,-1.470987678E0
2.895148547E1,-1.924427629E0,1.196411345E-2,-8.614161611E-1
2.897094630E1,-3.170489967E-1,1.475175142E0,-5.090730190E-1
2.899040713E1,9.655039310E-1,1.463809252E0,-4.606183618E-2
2.900986797E1,2.514258385E0,-5.090730190E-1,-1.258624673E0
2.902932890E1,7.631309509E0,-1.802393675E0,-3.302693367E0
2.904878974E1,1.508315754E1,-6.669993401E-1,-2.145763636E0
2.906825057E1,3.611427307E1,9.152546525E-1,7.986045480E-1
2.908771140E1,5.687918854E1,2.882753134E0,9.828519225E-1
2.910717234E1,3.790410614E1,-1.981257200E0,-6.690930367E0
2.912663318E1,2.008056831E1,-6.005386829E0,-3.481556892E0
2.914609401E1,7.510472298E0,-3.924229145E0,-4.211367965E-1
2.916555484E1,1.955534339E0,6.334998012E-1,1.243669510E0
2.918501568E1,7.040880919E-1,3.702893019E0,1.222732425E0
2.920447661E1,1.316052489E-2,4.464408875E0,-1.351346612E0
2.922393744E1,-2.490928411E0,3.880560160E0,-3.954737663E0
2.924339828E1,-5.534598827E0,3.288336515E0,-3.992424488E0
2.926285911E1,-5.215157032E0,2.322234392E0,-2.242672920E0
2.928231994E1,-1.923829436E0,4.851447940E-1,4.588237405E-1
2.930178088E1,1.064207911E0,-7.639086246E-1,2.370090723E0
2.932124172E1,2.716451883E0,-3.224328458E-1,2.821736097E0
2.934070255E1,2.801995277E0,8.931210637E-1,1.023529887E0
2.936016338E1,2.406581402E0,1.816750646E0,-1.957927108E0
2.937962422E1,4.368097782E0,1.972284079E0,-4.563112736E0
2.939908515E1,8.584849358E0,4.636093974E-1,-5.425725460E0
2.941854599E1,1.624726486E1,-1.735394597E0,-4.281956196E0
2.943800682E1,3.404627609E1,-4.312464714E0,-1.509272933E0
2.945746765E1,6.084289932E1,-3.920041800E0,1.201196909E0
2.947692859E1,3.586302948E1,1.136590727E-2,7.190431952E-1
2.949638942E1,1.732762527E1,2.023131609E0,-1.854437590E-1
2.951585026E1,1.061097240E1,5.862415582E-2,-1.755135417E0
2.953531109E1,6.633502483E0,-2.557927370E0,-3.491726398E0
2.955477192E1,4.874777794E0,-3.801596880E0,-4.660022259E0
2.957423286E1,4.518247128E0,-2.225923300E0,-3.951148272E0
2.959369370E1,3.512663603E0,1.417747378E0,-1.252642632E0
2.961315453E1,9.732806087E-1,4.119842529E0,1.069591761E0
2.963261536E1,-2.235494614E0,3.092125177E0,1.317847013E0
2.965207630E1,-4.083950043E0,2.638086975E-1,1.818545163E-1
2.967153713E1,-4.077968121E0,-5.473581553E-1,-1.597807288E0
2.969099797E1,-2.665006161E0,5.467599630E-1,-2.667997360E0
2.971045880E1,-1.338186026E0,1.896910191E0,-1.817947030E0
2.972991974E1,2.847459018E-1,2.098505497E0,-2.027917206E-1
2.974938057E1,2.834896564E0,3.816552162E-1,8.578268886E-1
2.976884140E1,6.963113785E0,-1.749751568E0,-1.932204217E-1
2.978830224E1,1.325743389E1,-2.192423820E0,-3.008974552E0
2.980776318E1,2.004288101E1,5.916253924E-1,-9.577272534E-1
2.982722401E1,3.716831207E1,1.731805444E0,2.879761934E0
2.984668484E1,4.456333160E1,-1.412961721E0,-5.431707382E0
2.986614578E1,3.396910858E1,-4.977070987E-1,-1.557727575E0
2.988560661E1,2.139243317E1,2.522035122E0,1.161715388E0
2.990506744E1,1.300917816E1,5.519643784E0,4.695316315E0
2.992452828E1,7.223333359E0,3.885345697E0,2.189432681E-1
2.994398922E1,3.814757586E0,1.134197950E0,-3.961317778E0
2.996345005E1,2.135594130E0,-7.830511928E-1,-3.211168051E0
2.998291088E1,5.838487148E-1,-8.955138922E-1,-2.251047850E0
3.000237172E1,-4.024129391E0,1.199402332E0,-9.236295223E-1
3.002183265E1,-8.347960472E0,2.014158487E0,2.093719877E-2
3.004129349E1,-7.100102901E0,-5.982056856E-1,-1.023529887E0
3.006075432E1,-2.489133835E0,-1.837687731E0,-8.129615188E-1
3.008021515E1,1.793420553E0,-4.731806815E-1,-1.740778536E-1
3.009967609E1,3.381656647E0,1.573879123E0,-5.485545993E-1
3.011913693E1,3.049652576E0,2.578266382E0,-1.091127157E0
3.013859776E1,2.468196630E0,1.807777524E0,-2.197209358E0
3.015805859E1,2.749951363E0,3.050848842E-2,-2.732603550E0
3.017751953E1,5.701498032E0,-1.512263894E0,-2.724228621E0
3.019698036E1,1.499641800E1,-1.909472466E0,-1.596012712E0
3.021644120E1,4.662055969E1,-1.776072621E0,3.905086517E0
3.023590213E1,6.518108368E1,1.794616925E-3,1.274178028E-1
3.025536297E1,2.917329407E1,1.569093466E0,-2.780459881E0
3.027482380E1,1.645125389E1,1.621137381E0,-1.680957973E-1
3.029428463E1,1.152981567E1,1.657029688E-1,8.368897438E-1
3.031374557E1,7.613961697E0,-2.204986095E0,1.435693540E-2
3.033320640E1,4.780859470E0,-2.692523718E0,-2.475973129E0
3.035266724E1,3.196810961E0,-1.007976532E0,-3.589832067E0
3.037212807E1,3.296113312E-1,1.803590059E0,-2.347358942E0
3.039158901E1,-5.191228867E0,3.697509289E0,1.172483116E-1
3.041104984E1,-7.740182877E0,2.081755638E0,8.602197170E-1
3.043051068E1,-5.513063431E0,-8.572286963E-1,-3.391826153E-1
3.044997161E1,-2.547159672E0,-9.439685345E-1,-9.810572863E-1
3.046943245E1,-2.195414752E-1,6.311069727E-1,-1.575673699E0
3.048889328E1,1.071984529E0,1.602592945E0,-2.292922258E0
3.050835411E1,1.520040631E0,1.033699393E0,-2.482553482E0
3.052781505E1,2.651247501E0,-1.968096644E-1,-2.662613392E0
3.054727588E1,6.975078106E0,-9.254241586E-1,-1.317847013E0
3.056673672E1,1.318385410E1,-1.956132501E-1,-3.488137245E0
3.058619765E1,3.348276901E1,3.061018467E0,1.604985833E0
3.060565849E1,6.152964020E1,5.615356445E0,1.514656782E0
3.062511932E1,4.075874329E1,2.270190477E0,-7.325028419E0
3.064458026E1,2.024567223E1,-1.125224829E0,-6.625725746E0
3.066404109E1,1.052901745E1,-8.147560954E-1,-1.956132501E-1
3.068350192E1,7.383054256E0,1.064806059E-1,1.975275040E0
3.070296286E1,5.469992638E0,5.670989752E-1,1.180858016E0
3.072242370E1,3.854837179E0,4.666004181E-1,-1.692921966E-1
3.074188453E1,7.304090858E-1,2.267199457E-1,-1.773081541E0
3.076134547E1,-3.962514400E0,1.310070455E-1,-1.829312921E0
3.078080630E1,-6.920042992E0,-1.064806059E-1,-2.175673962E0
3.080026713E1,-5.726024628E0,-4.091726840E-1,-1.844866276E0
3.081972807E1,-2.236092806E0,-4.253242314E-1,-5.790630579E-1
3.083918890E1,7.645068169E-1,8.135596663E-2,6.035895348E-1
3.085864974E1,2.589034081E0,9.834501147E-1,1.117448211E0
3.087811057E1,2.273181438E0,1.785045743E0,8.081758618E-1
3.089757151E1,4.833501875E-1,1.970489502E0,-2.991028428E-1
3.091703234E1,-2.201396823E-1,1.267597795E0,-2.340778828E0
3.093649318E1,2.097309113E0,7.088736892E-1,-3.961317778E0
3.095595411E1,6.237490654E0,2.805584669E-1,-3.677170277E0
3.097541494E1,1.640100479E1,-4.187439568E-3,-3.884747505E0
3.099487578E1,4.316950989E1,1.036690354E0,2.210369825E0
3.101433672E1,6.167979050E1,1.148554832E-1,2.328216314E0
3.103379755E1,3.379323578E1,-4.648058116E-1,-1.178465188E-1
3.105325849E1,1.993759727E1,-1.164108157E0,-8.243274093E-1
3.107271932E1,1.736052704E1,-1.876571178E0,-1.341177106E0
3.109218015E1,1.420140266E1,-1.968694806E0,-2.635095835E0
3.111164099E1,9.132805824E0,4.187439568E-3,-4.296911240E0
3.113110193E1,4.988437176E0,2.395215511E0,-4.087539196E0
3.115056276E1,1.306481123E0,3.897309780E0,-1.968096614E0
3.117002370E1,-2.401795626E0,3.135195971E0,1.142572835E-1
3.118948453E1,-4.875376225E0,-7.567301393E-1,6.029912829E-1
3.120894536E1,-5.014159679E0,-3.879363775E0,-2.560320199E-1
3.122840620E1,-2.970091105E0,-3.653241873E0,-1.295115232E0
3.124786713E1,-7.190431952E-1,-9.379864931E-1,-5.922235847E-1
3.126732797E1,6.568298340E-1,2.019542217E0,6.951149702E-1
3.128678890E1,1.328016520E0,2.883351326E0,1.417149186E0
3.130624974E1,5.186443329E-1,1.042672515E0,6.646065116E-1
3.132571057E1,-3.852444589E-1,-1.142572761E0,-1.126421213E0
3.134517151E1,-2.727817893E-1,-2.007578135E0,-2.400599241E0
3.136463234E1,2.620140791E0,-6.969096065E-1,-4.071985722E0
3.138409318E1,7.746763229E0,2.838485956E0,-5.069792747E0
3.140355411E1,1.649193192E1,6.709474564E0,-2.056032896E0
3.142301495E1,3.564587784E1,4.600799561E0,4.945964336E0
3.144247588E1,5.315954590E1,-2.269592285E0,-6.693323135E0
3.146193672E1,4.318147659E1,-2.335394859E0,-3.902693748E0
3.148139755E1,2.546441841E1,1.968694806E0,2.049452543E0
3.150085849E1,1.837867165E1,3.737588882E0,3.887738705E0
3.152031932E1,1.184985638E1,2.730210543E0,-1.728814393E-1
3.153978026E1,6.680162430E0,2.611765862E0,-2.267797709E0
3.155924109E1,5.349154949E0,1.170090318E0,-3.330210924E0
3.157870192E1,3.921836376E0,-7.758727670E-1,-4.086342812E0
3.159816286E1,-6.203392744E-1,-2.951546669E0,-2.557927370E0
3.161762370E1,-7.573882103E0,-3.049054146E0,-4.199403822E-1
3.163708453E1,-8.190631866E0,-5.850451589E-1,-8.237292171E-1
3.165654547E1,-4.097708702E0,1.578066587E0,1.166501045E-1
3.167600630E1,3.768695593E-1,1.365703583E0,1.043270707E0
3.169546713E1,3.254238844E0,6.137589812E-1,1.076171994E0
3.171492807E1,4.343571186E0,5.288137794E-1,6.364908218E-1
3.173438890E1,2.595016241E0,6.669993401E-1,-1.812563092E-1
3.175384984E1,-3.696911037E-1,4.630111754E-1,-1.478764415E0
3.177331068E1,-2.062014818E0,-8.566305041E-1,-2.400599241E0
3.179277151E1,2.123630047E0,-1.333400369E0,-6.100501537E0
3.181223245E1,8.632705688E0,2.033301115E0,-5.381458282E0
3.183169328E1,2.059801483E1,7.880761147E0,-4.444069862E0
3.185115422E1,3.892284775E1,8.245068550E0,3.741178274E0
3.187061505E1,3.882055664E1,-2.039881349E-1,4.853840828E0
3.189007599E1,2.536033058E1,-3.207578659E0,1.213161111E0
3.190953682E1,1.402313709E1,-7.501499057E-1,2.420938253E0
3.192899776E1,9.078967094E0,2.807379246E0,4.280161381E0
3.194845859E1,7.720442295E0,3.934398651E0,2.548356056E0
3.196791942E1,7.426723480E0,2.093121529E0,-1.193420291E0
3.198738036E1,6.672386169E0,5.509474277E-1,-3.097508907E0
3.200684120E1,5.717649937E0,-1.830509305E-1,-2.900699139E0
3.202630203E1,3.848257065E0,-8.673982024E-1,-2.552543640E0
3.204576297E1,1.944766641E0,-1.687538147E0,-2.040479422E0
3.206522380E1,2.239083767E0,-1.631905079E0,-1.064207911E0
3.208468474E1,4.786841869E0,-5.222335458E-1,-3.469592929E-1
3.210414557E1,8.572885513E0,7.968099117E-1,-1.507478207E-1
3.212360651E1,1.312702465E1,1.749751568E0,-2.943171859E-1
3.214306734E1,1.687657738E1,8.321040869E-1,2.512463741E-2
3.216252818E1,1.650688744E1,-1.432104349E0,4.372883439E-1
3.218198911E1,1.313719463E1,-2.602792740E0,1.316052489E-2
3.220144994E1,1.003669453E1,-2.103291035E0,-1.523629785E0
3.222091088E1,7.658827305E0,-8.644071817E-1,-5.359922647E-1
3.224037172E1,8.866005898E0,-6.508477330E-1,7.776673436E-1
3.225983265E1,1.017787075E1,2.752344131E0,1.411765367E-1
3.227929349E1,9.342776299E0,4.328616142E0,-4.917250574E-1
3.229875442E1,7.768897057E0,3.739383698E0,-2.899502754E0
3.231821526E1,8.477770805E0,1.060618639E0,-1.886740685E0
3.233767609E1,9.141778946E0,-2.312064886E0,-2.841476798E-1
3.235713703E1,9.748359680E0,-3.701696634E0,6.496513486E-1
3.237659786E1,1.100160027E1,-4.088735580E0,6.221339107E-1
3.239605880E1,1.191506004E1,-4.771886349E0,1.962114573E-1
3.241551963E1,1.178644657E1,-3.995415688E0,-5.802595019E-1
3.243498057E1,1.072642612E1,-2.023729801E0,-6.442674994E-1
3.245444140E1,9.817750931E0,-2.679961324E-1,-3.589234054E-1
3.247390234E1,9.183054924E0,9.314061999E-1,-3.170489967E-1
3.249336318E1,8.950951576E0,1.295713425E0,-2.440679073E-1
3.251282401E1,9.163313866E0,8.165507317E-1,-4.456632137E-1
3.253228494E1,9.451051712E0,-1.549352705E-1,-6.813562512E-1
3.255174578E1,9.642477036E0,-1.248455167E0,-7.393822074E-1
3.257120672E1,9.849455833E0,-1.570888042E0,-5.132604837E-1
3.259066755E1,9.976275444E0,-9.409775138E-1,-1.531406492E-1
3.261012849E1,1.018325520E1,-2.913261652E-1,-6.460621208E-2
3.262958932E1,1.017248726E1,-3.529413417E-2,-1.292124242E-1
3.264905026E1,9.957133293E0,6.520441920E-2,-2.889333367E-1
3.266851109E1,9.751350403E0,2.213360965E-1,-2.410768867E-1
3.268797203E1,9.663414001E0,4.546363056E-1,7.776673883E-2
3.270743286E1,9.686744690E0,2.159522474E-1,3.601198196E-1
3.272689380E1,9.583852768E0,-6.029912829E-1,9.092725813E-2
3.274635463E1,9.697511673E0,-1.168893814E0,-1.166501045E-1
3.276581547E1,1.006899738E1,-1.336391449E0,-7.537391037E-2
3.278527640E1,1.022094154E1,-1.079162955E0,6.161518395E-2
3.280473724E1,1.009412193E1,-9.242277741E-1,4.606183618E-2
3.282419818E1,1.003669453E1,-8.673982024E-1,-4.905286431E-2
3.284365901E1,1.018026352E1,-6.257231236E-1,-2.512463629E-1
3.286311994E1,1.046500969E1,-3.589234129E-2,-2.464607358E-1
3.288258078E1,1.050449181E1,4.905286431E-1,4.307080805E-2
3.290204172E1,1.052124119E1,3.481557071E-1,-5.982056633E-2
3.292150255E1,1.073240757E1,-5.126622319E-1,-2.554338276E-1
3.294096349E1,1.083649540E1,-1.338186026E0,-9.092725813E-2
3.296042432E1,1.022931671E1,-1.621735573E0,1.459621787E-1
3.297988526E1,9.592227936E0,-1.490130305E0,4.067798331E-2
3.299934609E1,8.979664803E0,-1.167099237E0,-2.165504545E-1
3.301880703E1,8.751151085E0,-7.034898400E-1,-6.370890141E-1
3.303826786E1,8.914461136E0,-1.304088384E-1,-9.595218897E-1
3.305772880E1,9.382855415E0,5.246263742E-1,-1.049252748E0
3.307718963E1,9.902696609E0,9.146564603E-1,-8.907282352E-1
3.309665057E1,1.056132126E1,7.441678643E-1,-1.075573802E0
3.311611140E1,1.115653515E1,2.865405083E-1,-1.004387259E0
3.313557234E1,1.119362450E1,-6.281159073E-2,-1.086341500E0
3.315503318E1,1.060020447E1,1.339980662E-1,-1.487139225E0
3.317449411E1,9.868000984E0,5.808576941E-1,-1.318445325E0
3.319395494E1,9.448060036E0,9.774680734E-1,-1.034895778E0
3.321341588E1,9.208179474E0,1.068395257E0,-8.578268886E-1
3.323287672E1,9.211171150E0,1.054636598E0,-8.560323119E-1
3.325233765E1,9.354142189E0,1.161715388E0,-7.848458290E-1
3.327179849E1,9.636494637E0,1.333998680E0,-3.523431420E-1
3.329125942E1,9.888339996E0,1.375872970E0,1.124626622E-1
3.331072026E1,9.903294563E0,1.326221943E0,3.517449200E-1
3.333018120E1,9.851848602E0,1.054636598E0,4.378865361E-1
3.334964203E1,9.920044899E0,8.488538265E-1,4.965106845E-1
3.336910297E1,1.009232807E1,9.607182741E-1,4.109672904E-1
3.338856380E1,1.015693378E1,1.123430252E0,2.757728100E-1
3.340802474E1,9.873982430E0,1.136590719E0,6.400800496E-2
3.342748557E1,9.338588715E0,1.315454245E0,1.435693540E-2
3.344694651E1,9.025128365E0,1.649253011E0,7.357929647E-2
3.346640734E1,9.091529846E0,1.960319996E0,2.925225794E-1
3.348586828E1,9.402596474E0,2.127219439E0,3.696911037E-1
3.350532911E1,9.537791252E0,2.011167526E0,1.322034448E-1
3.352479005E1,9.448657990E0,1.972882271E0,-2.691925503E-2
3.354425088E1,9.190233231E0,2.117648125E0,7.178467698E-3
3.356371182E1,8.806185722E0,2.265404940E0,8.554340899E-2
3.358317265E1,8.614161491E0,2.255833626E0,-1.052841991E-1
3.360263359E1,8.605188370E0,2.330011129E0,-4.558327198E-1
3.362209453E1,8.863613129E0,2.501097918E0,-5.485545993E-1
3.364155536E1,9.400801659E0,2.635095835E0,-2.452643216E-2
3.366101630E1,9.898509026E0,2.396411896E0,5.706881881E-1
3.368047713E1,1.022752190E1,1.672582984E0,6.454638839E-1
3.369993807E1,1.012164021E1,9.505487680E-1,3.649054468E-1
3.371939890E1,9.737591743E0,5.712863803E-1,1.322034448E-1
3.373885984E1,9.240483284E0,4.725824594E-1,7.238288224E-2
3.375832068E1,9.507881165E0,5.413761139E-1,-1.495514214E-1
3.377778161E1,1.053679466E1,1.168295622E0,-5.371887088E-1
3.379724255E1,1.143171024E1,2.187638044E0,-8.315058947E-1
3.381670338E1,1.137966633E1,2.943770170E0,-8.315058947E-1
3.383616432E1,1.022213840E1,2.883351326E0,-6.311069727E-1
3.385562515E1,8.876175880E0,2.149353027E0,-4.163511395E-1
3.387508609E1,7.907680511E0,1.262213945E0,-3.361915946E-1
3.389454692E1,7.652246952E0,5.611169338E-1,-4.749752879E-1
3.391400786E1,8.138587952E0,4.660021961E-1,-8.033902049E-1
3.393346870E1,9.166305542E0,1.039083242E0,-9.499505758E-1
3.395292963E1,1.011386299E1,1.517647743E0,-1.131805062E0
3.397239057E1,1.068933678E1,1.603789330E0,-1.262812138E0
3.399185140E1,1.066122150E1,1.201795220E0,-1.168893814E0
3.401131234E1,1.031007481E1,6.610172391E-1,-1.113260746E0
3.403077318E1,9.942776680E0,3.284149170E-1,-1.034297585E0
3.405023411E1,9.702297211E0,2.135594189E-1,-9.355936646E-1
3.406969494E1,9.447462082E0,1.363908947E-1,-9.672985673E-1
3.408915588E1,9.214759827E0,-1.088734269E-1,-9.553344250E-1
3.410861682E1,9.162117958E0,-4.947160780E-1,-1.185643673E0
3.412807765E1,9.192625999E0,-8.195417523E-1,-1.566102386E0
3.414753859E1,9.215357780E0,-8.309076428E-1,-2.112862349E0
3.416699942E1,9.165108681E0,-6.257231236E-1,-2.668595552E0
3.418646036E1,9.265008926E0,-5.198407173E-1,-3.175275564E0
3.420592130E1,9.440881729E0,-5.940182209E-1,-3.504288673E0
3.422538213E1,9.546165466E0,-8.327022791E-1,-3.358326674E0
3.424484307E1,9.585049629E0,-8.997012973E-1,-2.842075109E0
3.426430390E1,9.812965393E0,-5.748756528E-1,-2.260020971E0
3.428376484E1,1.014197922E1,1.794616925E-3,-1.928016901E0
3.430322578E1,1.063011456E1,3.816552162E-1,-2.019542217E0
3.432268661E1,1.078564835E1,4.582255483E-1,-2.159522533E0
3.434214755E1,1.035553837E1,4.666004330E-2,-2.362912416E0
3.436160838E1,9.681360245E0,-6.699903607E-1,-2.592025042E0
3.438106932E1,9.160323143E0,-1.162911773E0,-2.857628345E0
3.440053015E1,8.802596092E0,-1.129412293E0,-3.052045345E0
3.441999109E1,8.684749603E0,-3.248256743E-1,-2.958127022E0
3.443945203E1,8.852845192E0,4.019941986E-1,-2.889931440E0
3.445891286E1,9.172286987E0,5.964110494E-1,-3.280559778E0
3.447837380E1,9.610174179E0,4.923232496E-1,-3.658027649E0
3.449783474E1,9.624530792E0,3.038884699E-1,-3.687937975E0
3.451729557E1,8.954540253E0,3.427718580E-1,-3.398406267E0
3.453675651E1,7.965706348E0,6.532405615E-1,-3.483949661E0
3.455621734E1,7.844869137E0,6.556333899E-1,-3.492922783E0
3.457567828E1,8.320442200E0,9.810572863E-2,-3.599403381E0
3.459513922E1,8.734998703E0,-9.164510965E-1,-4.150351048E0
3.461460005E1,9.179466248E0,-1.683948994E0,-4.442873478E0
3.463406099E1,9.569496155E0,-1.552941918E0,-3.957728624E0
3.465352182E1,9.672387123E0,-7.322037220E-1,-3.390031576E0
3.467298276E1,9.003593445E0,-1.268195957E-1,-3.500101328E0
3.469244370E1,8.441280365E0,-1.663011760E-1,-4.165904045E0
3.471190453E1,8.306085587E0,-6.454638839E-1,-4.771886349E0
3.473136547E1,8.872586250E0,-7.106683254E-1,-4.881956577E0
3.475082630E1,9.671191216E0,1.746760458E-1,-4.737788677E0
3.477028724E1,1.021196842E1,1.349551916E0,-4.658227444E0
3.478974818E1,1.014138031E1,1.954337835E0,-4.706682205E0
3.480920901E1,9.480362892E0,1.633699656E0,-4.847858906E0
3.482866994E1,8.484351158E0,7.657032609E-1,-5.032704353E0
3.484813088E1,7.864011765E0,3.768695518E-2,-5.143970490E0
3.486759172E1,8.002795219E0,-2.093719840E-1,-5.003392220E0
3.488705265E1,8.529814720E0,1.286142170E-1,-4.980062008E0
3.490651359E1,9.162117958E0,6.807580590E-1,-5.272584915E0
3.492597442E1,9.578469276E0,1.035493970E0,-5.574080467E0
3.494543536E1,9.370891571E0,1.106680512E0,-5.590830326E0
3.496489630E1,8.769096375E0,1.012163997E0,-5.421537876E0
3.498435713E1,8.219346046E0,8.781659007E-1,-5.230710506E0
3.500381807E1,7.946564198E0,9.092726111E-1,-5.204389095E0
3.502327890E1,7.890930653E0,1.012762189E0,-5.232504845E0
3.504273984E1,8.091927528E0,1.047458172E0,-5.276772022E0
3.506220078E1,8.330014229E0,1.101894855E0,-5.178068161E0
3.508166161E1,8.449056625E0,1.226321578E0,-5.157131195E0
3.510112255E1,8.441280365E0,1.366899967E0,-5.279763222E0
3.512058349E1,8.426324844E0,1.289133191E0,-5.405984402E0
3.514004432E1,8.338987350E0,1.158724308E0,-5.428716183E0
3.515950526E1,8.327022552E0,1.009172916E0,-5.344967365E0
3.517896620E1,8.557929993E0,8.841479421E-1,-5.212764263E0
3.519842703E1,8.809176445E0,8.745766878E-1,-5.048257351E0
3.521788797E1,9.042476654E0,9.427721500E-1,-4.939982414E0
3.523734890E1,9.099306107E0,1.022333503E0,-4.821537495E0
3.525680974E1,8.974281311E0,1.046261668E0,-4.645665169E0
3.527627068E1,8.953942299E0,8.602197170E-1,-4.559523582E0
3.529573161E1,9.102895737E0,7.716853023E-1,-4.546362877E0
3.531519244E1,9.331410408E0,7.866404653E-1,-4.457230568E0
3.533465338E1,9.617352486E0,7.746763229E-1,-4.316053867E0
3.535411432E1,9.902696609E0,6.885347366E-1,-4.161118507E0
3.537357515E1,9.989436150E0,5.928218365E-1,-4.016951084E0
3.539303609E1,9.770493507E0,6.311069727E-1,-3.938585997E0
3.541249703E1,9.488738060E0,7.429714203E-1,-3.839283943E0
3.543195786E1,9.297910690E0,9.720842242E-1,-3.850649834E0
3.545141880E1,9.086744308E0,1.188036442E0,-3.748954773E0
3.547087974E1,8.940781593E0,1.295115232E0,-3.565903902E0
3.549034057E1,8.879166603E0,1.291526079E0,-3.382254839E0
3.550980151E1,8.764310837E0,1.234696507E0,-3.285345554E0
3.552926244E1,8.819346428E0,1.221535921E0,-3.334398270E0
3.554872328E1,9.011369705E0,1.452443361E0,-3.515056372E0
3.556818422E1,9.308079720E0,1.718046665E0,-3.591028690E0
3.558764515E1,9.207581520E0,1.841875196E0,-3.613760471E0
3.560710599E1,9.080761909E0,1.765304923E0,-3.472583771E0
3.562656692E1,8.874979019E0,1.465603828E0,-3.102892876E0
3.564602786E1,8.755936623E0,1.282552958E0,-2.713460922E0
3.566548870E1,8.676374435E0,1.320838094E0,-2.525026083E0
3.568494963E1,8.837890625E0,1.328016520E0,-2.268395901E0
3.570441057E1,8.996415138E0,1.054038405E0,-1.963909149E0
3.572387140E1,9.141180992E0,7.022934556E-1,-1.403988719E0
3.574333234E1,9.218947411E0,5.204389095E-1,-1.009172916E0
3.576279328E1,9.193224907E0,7.543373108E-1,-5.036891699E-1
3.578225411E1,9.235696793E0,1.226321578E0,-5.742774159E-2
3.580171505E1,9.377471924E0,1.402792215E0,-1.591227055E-1
3.582117599E1,9.672387123E0,1.284347534E0,-9.056833982E-1
3.584063682E1,9.904491425E0,1.269392371E0,-1.423729420E0
3.586009776E1,1.004148006E1,1.563709617E0,-1.521835208E0
3.587955870E1,9.927223206E0,2.010569334E0,-1.104885817E0
3.589901953E1,9.873982430E0,2.322832584E0,-5.934200287E-1
3.591848047E1,9.708279610E0,2.344367981E0,-3.409772217E-1
3.593794140E1,9.391230583E0,2.189432621E0,-3.816552162E-1
3.595740224E1,9.160323143E0,2.097309113E0,-5.527420044E-1
3.597686318E1,8.987442017E0,2.108675003E0,-7.603194118E-1
3.599632411E1,8.894720078E0,2.038684845E0,-8.673982024E-1
3.601578494E1,8.827122688E0,1.957927108E0,-7.609176040E-1
3.603524588E1,8.892925262E0,1.826920033E0,-7.447660565E-1
3.605470682E1,9.119047165E0,1.773081541E0,-8.727820516E-1
3.607416765E1,9.403793335E0,1.791625977E0,-6.897311211E-1
3.609362859E1,9.619745255E0,1.649253011E0,-3.260220885E-1
3.611308953E1,9.687342644E0,1.528415442E0,-1.722832322E-1
3.613255047E1,9.698708534E0,1.564906001E0,-1.657029688E-1
3.615201130E1,9.814760208E0,1.645065546E0,-3.421736360E-1
3.617147224E1,9.833304405E0,1.767697692E0,-4.893322289E-1
3.619093318E1,9.965508461E0,1.465603828E0,-8.111668825E-1
3.621039401E1,1.006241703E1,7.806583643E-1,-1.235892892E0
3.622985494E1,1.000439167E1,4.887340367E-1,-1.147956610E0
3.624931588E1,9.622138023E0,8.542376757E-1,-9.523434043E-1
3.626877672E1,9.407979965E0,1.556531072E0,-9.601200819E-1
3.628823765E1,9.592227936E0,2.100300074E0,-1.225125194E0
3.630769859E1,9.914062500E0,2.029711723E0,-1.342373490E0
3.632715943E1,1.020718288E1,1.315454245E0,-1.389033556E0
3.634662036E1,1.004327488E1,4.905286431E-1,-1.109671474E0
3.636608130E1,9.556933403E0,-3.768695518E-2,-8.733802438E-1
3.638554213E1,9.160323143E0,-3.559323549E-1,-7.980063558E-1
3.640500307E1,9.026923180E0,-6.364908218E-1,-4.085744619E-1
3.642446401E1,9.460622787E0,-9.308080077E-1,-4.474578202E-1
3.644392484E1,1.031545830E1,-1.081555843E0,-1.012762189E0
3.646338578E1,1.074915791E1,-9.074779749E-1,-1.047458172E0
3.648284672E1,1.037049294E1,-5.335994363E-1,-9.780662656E-1
3.650230755E1,9.592825890E0,-3.248256743E-1,-1.301097274E0
3.652176849E1,9.399007797E0,-1.501496136E-1,-1.493121386E0
3.654122943E1,9.553942680E0,-6.819544733E-2,-1.064207911E0
3.656069026E1,9.526425362E0,-3.744767308E-1,-6.394818425E-1
3.658015120E1,9.632905960E0,-9.786644578E-1,-5.347958803E-1
3.659961213E1,1.003131104E1,-1.328614831E0,-1.561316848E-1
3.661907307E1,1.048235798E1,-1.197009563E0,8.327022791E-1
3.663853390E1,1.074197865E1,-7.004988194E-1,1.656431437E0
3.665799484E1,1.077308559E1,-2.333002165E-2,1.828116536E0
3.667745578E1,1.122293663E1,5.282155871E-1,1.252642632E0
3.669691661E1,1.140180016E1,7.124629617E-1,5.216353536E-1
3.671637755E1,1.084606647E1,5.844469070E-1,-8.374879509E-2
3.673583849E1,1.009890842E1,3.643072546E-1,-5.521438122E-1
3.675529943E1,9.933204651E0,1.956132501E-1,-4.731806815E-1
3.677476026E1,9.939785004E0,1.417747438E-1,3.768695518E-2
3.679422120E1,9.674779892E0,-6.580262445E-3,3.714857101E-1
3.681368213E1,9.494720459E0,-4.199403822E-1,3.643072546E-1
3.683314307E1,9.576076508E0,-9.690931439E-1,2.901297510E-1
3.685260390E1,9.863214493E0,-1.330409408E0,2.997010350E-1
3.687206484E1,9.857831001E0,-1.238883972E0,2.697907388E-1
3.689152578E1,9.669994354E0,-7.166503668E-1,2.811566591E-1
3.691098661E1,9.433703423E0,-2.937189937E-1,3.194418252E-1
3.693044755E1,9.403793335E0,-5.090730190E-1,2.291127741E-1
3.694990849E1,9.595816612E0,-1.137787223E0,-1.405783296E-1
3.696936943E1,9.689735413E0,-1.593619823E0,-4.366901219E-1
3.698883026E1,9.742975235E0,-1.558923960E0,-6.340979934E-1
3.700829120E1,9.855438232E0,-9.655039310E-1,-9.182456732E-1
3.702775213E1,1.001276588E1,1.298106313E-1,-7.974081635E-1
3.704721307E1,1.054158020E1,1.050449133E0,-4.839483798E-1
3.706667390E1,1.119781208E1,8.261220455E-1,-8.913264275E-1
3.708613484E1,1.121874905E1,1.154536903E-1,-1.318445325E0
3.710559578E1,1.062353420E1,-7.776673883E-2,-1.323829174E0
3.712505672E1,9.565906525E0,3.762713671E-1,-9.343972206E-1
3.714451755E1,8.560322762E0,9.768698215E-1,-3.457628787E-1
3.716397849E1,8.077570915E0,1.127019525E0,2.147558331E-1
3.718343942E1,8.315058708E0,6.777670383E-1,3.146561682E-1
3.720290036E1,9.106484413E0,3.828516230E-2,2.967100143E-1
3.722236120E1,9.829715729E0,-3.858426511E-1,2.500499785E-1
3.724182213E1,1.027657509E1,-6.406782866E-1,8.733802289E-2
3.726128307E1,1.009472084E1,-6.963114142E-1,-2.979064286E-1
3.728074401E1,9.680164337E0,-4.570291340E-1,-7.609176040E-1
3.730020484E1,9.591031075E0,1.387837082E-1,-8.871390224E-1
3.731966578E1,1.020239735E1,7.716853023E-1,-8.075776696E-1
3.733912672E1,1.077727318E1,1.079761267E0,-8.213363886E-1
3.735858765E1,1.079761219E1,9.332008362E-1,-8.931210637E-1
3.737804849E1,1.021496010E1,4.420739710E-1,-7.890332937E-1
3.739750942E1,9.556335449E0,-7.776673883E-2,-4.917250574E-1
3.741697036E1,9.166903496E0,-4.019941986E-1,-8.554340899E-2
3.743643130E1,9.241679192E0,-3.050848842E-1,2.488535494E-1
3.745589213E1,9.694520950E0,1.561316848E-1,3.535395563E-1
3.747535307E1,9.917651176E0,4.043870270E-1,1.256231871E-2
3.749481401E1,9.959526062E0,2.745763958E-1,-2.733799815E-1
3.751427495E1,9.906285286E0,7.836493850E-2,-3.774677813E-1
3.753373588E1,9.961918831E0,9.930214286E-2,-4.354937077E-1
3.755319672E1,1.021555805E1,3.828516304E-1,-4.971089065E-1
3.757265765E1,1.019761181E1,5.527420044E-1,-4.887340367E-1
3.759211859E1,1.000977516E1,3.511467278E-1,-3.242274821E-1
3.761157953E1,9.867402077E0,8.614161611E-2,-1.489532143E-1
3.763104036E1,9.696315765E0,9.631111473E-2,-7.178468257E-2
3.765050130E1,9.531808853E0,2.925225794E-1,-1.375873014E-2
3.766996224E1,9.528818130E0,3.493520916E-1,-9.930214286E-2
3.768942318E1,9.684949875E0,2.045863420E-1,-2.404786795E-1
3.770888411E1,9.875179291E0,1.615155339E-1,-3.056831062E-1
3.772834494E1,1.003848934E1,2.189432681E-1,-3.080759048E-1
3.774780588E1,1.010788059E1,2.434697002E-1,-3.577269912E-1
3.776726682E1,1.011147022E1,2.871387303E-1,-3.110669553E-1
3.778672776E1,1.016710377E1,2.566302419E-1,-1.465603858E-1
3.780618859E1,1.011206818E1,1.298106313E-1,5.982056609E-4
3.782564953E1,9.892526627E0,-1.734796353E-2,-2.213360928E-2
3.784511047E1,9.772886276E0,-9.571290575E-3,-5.443671346E-2
3.786457140E1,9.927821159E0,1.262213886E-1,-8.853443712E-2
3.788403234E1,1.012941647E1,2.745763958E-1,-1.465603858E-1
3.790349318E1,1.029990482E1,3.140579760E-1,-3.080759048E-1
3.792295411E1,9.974481583E0,3.882354796E-1,-3.194418252E-1
3.794241505E1,9.302098274E0,4.648058116E-1,-1.585244983E-1
3.796187599E1,8.889336586E0,4.043870270E-1,-1.788634956E-1
3.798133692E1,9.067601204E0,3.529413342E-1,-2.237289101E-1
3.800079776E1,9.067003250E0,3.565305769E-1,-1.256231815E-1
3.802025870E1,8.976076126E0,3.511467278E-1,-2.847459018E-1
3.803971963E1,9.084949493E0,3.074777126E-1,-5.898307562E-1
3.805918057E1,9.628718376E0,3.804588020E-1,-1.525424421E-1
3.807864140E1,1.054217815E1,4.157529473E-1,4.905286431E-1
3.809810234E1,1.114995575E1,5.892325640E-1,-6.041877344E-2
3.811756328E1,1.101715374E1,5.300102234E-1,-7.226324677E-1
3.813702422E1,1.054217815E1,3.296113312E-1,-9.469595551E-1
3.815648515E1,9.946365356E0,1.525424421E-1,-5.180460811E-1
3.817594599E1,9.562915802E0,3.290131092E-1,1.692921966E-1
3.819540692E1,9.570094109E0,6.382854581E-1,6.759724021E-1
3.821486786E1,9.479764938E0,7.351947427E-1,9.080761671E-1
3.823432880E1,9.418747902E0,3.451646566E-1,6.945167780E-1
3.825378974E1,9.583852768E0,-8.494520187E-2,4.265206456E-1
3.827325057E1,9.814760208E0,-8.614161611E-2,1.100698411E-1
3.829271151E1,9.684949875E0,1.908276081E-1,2.117647976E-1
3.831217244E1,9.390034676E0,2.225325108E-1,1.962114573E-1
3.833163338E1,9.658030510E0,1.788634956E-1,6.161518395E-2
3.835109432E1,1.023529911E1,2.386840582E-1,-3.589233849E-3
3.837055526E1,1.054935646E1,3.134597540E-1,2.452643216E-2
3.839001609E1,1.042792130E1,4.354937077E-1,1.722832322E-1
3.840947703E1,1.017727280E1,4.636093974E-1,1.351944804E-1
3.842893797E1,9.856036186E0,3.194418252E-1,-4.127619043E-2
3.844839890E1,9.717850685E0,1.441675574E-1,-1.369891018E-1
3.846785984E1,9.652048111E0,9.810572863E-2,-1.686939895E-1
3.848732078E1,9.756135941E0,2.356930375E-1,3.349951655E-2
3.850678161E1,9.829715729E0,4.313062727E-1,1.782652885E-1
3.852624255E1,9.903294563E0,3.164508045E-1,1.980060786E-1
3.854570349E1,1.000917721E1,9.391828626E-2,2.404786795E-1
3.856516442E1,1.010070229E1,5.144568533E-2,3.996013701E-1
3.858462536E1,9.648459435E0,3.062812984E-1,3.744767308E-1
3.860408620E1,9.531210899E0,3.684946895E-1,5.557330847E-1
3.862354713E1,9.668199539E0,3.116651475E-1,2.482553422E-1
3.864300807E1,9.896714211E0,2.853440940E-1,7.058826834E-2
3.866246901E1,9.925428391E0,3.326023519E-1,-9.990034252E-2
3.868192994E1,9.759725571E0,3.439682424E-1,-2.847459018E-1
3.870139088E1,9.580264091E0,1.639083475E-1,-7.597211748E-2
3.872085172E1,9.785448074E0,1.896311939E-1,-7.836493850E-2
3.874031265E1,1.005045319E1,5.030909777E-1,-5.024927482E-2
3.875977359E1,9.964311600E0,6.885347366E-1,1.124626622E-1
3.877923453E1,9.735796928E0,6.406782866E-1,1.058823988E-1
3.879869547E1,9.719645500E0,5.132604837E-1,-1.495514158E-2
3.881815640E1,9.969695091E0,3.595215976E-1,-6.640082598E-2
3.883761724E1,1.013001442E1,3.852444589E-1,-3.547359705E-1
3.885707818E1,9.936794281E0,4.893322289E-1,-2.763710022E-1
3.887653911E1,9.799206734E0,4.366901219E-1,-6.580262631E-2
3.889600005E1,9.737591743E0,2.380858511E-1,2.315055877E-1
3.891546099E1,9.698110580E0,6.340979785E-2,3.326023519E-1
3.893492193E1,9.671789169E0,-1.674975827E-2,8.673982322E-2
3.895438276E1,9.644271851E0,-8.973085321E-3,-2.213360965E-1
3.897384370E1,9.776474953E0,4.905286431E-2,-3.026920557E-1
3.899330463E1,9.969097137E0,1.298106313E-1,-6.340979785E-2
3.901276557E1,1.000917721E1,1.531406492E-1,6.520441920E-2
3.903222651E1,9.920044899E0,1.615155339E-1,-1.812563092E-1
3.905168744E1,9.984650612E0,2.344966233E-1,-5.162515044E-1
3.907114828E1,1.011565781E1,4.217349887E-1,-7.633104324E-1
3.909060922E1,1.015334511E1,7.142575383E-1,-8.518448472E-1
3.911007015E1,1.012283611E1,1.029511929E0,-8.237292171E-1
3.912953109E1,9.991230965E0,1.097707391E0,-7.441678643E-1
3.914899203E1,9.879366875E0,1.057029366E0,-5.772684813E-1
3.916845297E1,9.888937950E0,9.768698215E-1,-2.464607358E-1
3.918791390E1,9.975079536E0,7.920243144E-1,-6.939185411E-2
3.920737474E1,1.001216793E1,5.844469070E-1,1.615155302E-2
3.922683568E1,9.894919395E0,4.935196638E-1,-4.366901144E-2
3.924629661E1,9.725028992E0,4.683950245E-1,1.244267747E-1
3.926575755E1,9.586843491E0,4.821537733E-1,1.543370634E-1
3.928521849E1,9.579067230E0,5.515456200E-1,2.207378894E-1
3.930467942E1,9.658030510E0,4.624129832E-1,3.014956415E-1
3.932414036E1,9.745368004E0,2.057827413E-1,3.978067636E-1
3.934360120E1,9.773484230E0,-9.092725813E-2,4.504488707E-1
3.936306213E1,9.801599503E0,-3.224328458E-1,2.356930375E-1
3.938252307E1,9.907482147E0,-2.967100143E-1,1.196411327E-1
3.940198401E1,9.951150894E0,-1.052841991E-1,2.446661144E-1
3.942144495E1,9.971489906E0,3.529413417E-2,2.913261652E-1
3.944090588E1,9.915857315E0,8.913264424E-2,2.297109663E-1
3.946036682E1,9.863813400E0,1.034895778E-1,6.879365444E-2
3.947982765E1,9.781859398E0,2.099701911E-1,-5.144568533E-2
3.949928859E1,9.701699257E0,3.696911037E-1,-4.666004330E-2
3.951874953E1,9.674181938E0,5.557330847E-1,-1.680957973E-1
3.953821047E1,9.833304405E0,8.572286963E-1,-3.756731451E-1
3.955767140E1,1.001695347E1,1.084546804E0,-6.041877270E-1
3.957713234E1,1.011864853E1,1.063609719E0,-7.393822074E-1
3.959659328E1,1.008215809E1,9.559326172E-1,-5.659025311E-1
3.961605422E1,9.963115692E0,8.656035662E-1,-3.726821244E-1
3.963551505E1,9.870991707E0,7.692924738E-1,-2.476571500E-1
3.965497599E1,9.816555023E0,6.586244106E-1,-8.374879509E-2
3.967443692E1,9.729815483E0,5.461617708E-1,4.067798331E-2
3.969389786E1,9.805189133E0,4.121637046E-1,-6.221338734E-2
3.971335880E1,9.872187614E0,3.565305769E-1,-3.828516230E-2
3.973281974E1,9.893723488E0,4.145565331E-1,1.627119333E-1
3.975228068E1,9.836296082E0,3.732803464E-1,3.116651475E-1
3.977174161E1,9.774680138E0,2.709871531E-1,2.285145670E-1
3.979120255E1,9.716055870E0,2.488535494E-1,2.392822690E-2
3.981066338E1,9.753743172E0,2.919243574E-1,-5.563312769E-2
3.983012432E1,9.839884758E0,2.434697002E-1,1.016949583E-2
3.984958526E1,9.914062500E0,2.189432681E-1,1.615155339E-1
3.986904620E1,9.933204651E0,2.309073806E-1,2.775674164E-1
3.988850713E1,9.915258408E0,2.434697002E-1,1.477568001E-1
3.990796807E1,9.790832520E0,2.829512656E-1,-5.443671346E-2
3.992742901E1,9.742377281E0,3.732803464E-1,-1.304088384E-1
3.994688994E1,9.824331284E0,4.941178858E-1,-9.451649338E-2
3.996635088E1,9.814760208E0,6.466603279E-1,-5.443671346E-2
