"Time (s)","Gyroscope x (rad/s)","Gyroscope y (rad/s)","Gyroscope z (rad/s)"
3.167590600E-2,1.547778696E-1,-1.611155830E-2,1.145371469E-3
5.113663500E-2,1.540142894E-1,-4.421133921E-2,-2.290742996E-4
7.059726000E-2,1.439350098E-1,-5.719221383E-2,-3.130682046E-3
9.005798900E-2,1.289688200E-1,-5.261072889E-2,-1.259908639E-2
1.095186140E-1,1.204167232E-1,-5.474875495E-2,-2.237292193E-2
1.289793440E-1,1.042288020E-1,-6.299543381E-2,-2.680169232E-2
1.484400730E-1,7.658717036E-2,-6.146826968E-2,-2.298378758E-2
1.679006980E-1,5.199986324E-2,-4.925097153E-2,-1.931859925E-2
1.873614270E-1,4.176788032E-2,-5.093085021E-2,-9.239329956E-3
2.068221560E-1,3.382663801E-2,-5.184714869E-2,-6.795870606E-3
2.262827810E-1,1.565340906E-2,-5.230529606E-2,-2.672533505E-3
2.457435100E-1,-9.850194678E-3,-4.528035223E-2,-3.283398226E-3
2.652041350E-1,-4.024071619E-2,-4.039343446E-2,-9.926552884E-4
2.846648640E-1,-5.749764666E-2,-2.374736778E-2,4.810560029E-3
3.041255940E-1,-5.413788930E-2,-1.030834299E-2,8.628465235E-3
3.235862190E-1,-5.261072889E-2,-3.138317913E-2,9.239329956E-3
3.430469480E-1,-5.795579776E-2,-5.459604040E-2,8.475748822E-3
3.625076770E-1,-6.421715766E-2,-5.138900131E-2,6.490438245E-3
3.819683020E-1,-6.299543381E-2,-3.825540841E-2,2.977965865E-3
4.014290310E-1,-5.826122686E-2,-2.084576152E-2,1.091920771E-2
4.208897600E-1,-6.177370250E-2,-1.107192412E-2,2.069304511E-2
4.403503850E-1,-6.620246917E-2,-6.795870606E-3,2.252563834E-2
4.598111140E-1,-6.589704007E-2,-1.000291109E-2,1.122464053E-2
4.792717390E-1,-5.551233515E-2,-1.107192412E-2,5.345066893E-4
4.987324690E-1,-4.451677203E-2,-9.697478265E-3,-1.756236190E-3
5.181931980E-1,-4.039343446E-2,-9.850194678E-3,3.817904799E-4
5.376538230E-1,-3.581194952E-2,-1.305723470E-2,-3.817904799E-4
5.571145520E-1,-2.649625950E-2,-2.267835476E-2,-1.908952487E-3
5.765752810E-1,-1.886045001E-2,-3.214675933E-2,-2.977965865E-3
5.960359060E-1,-1.000291109E-2,-3.657552972E-2,-5.268708803E-3
6.154966350E-1,-2.367100911E-3,-4.466948658E-2,-1.030834299E-2
6.349573640E-1,3.283398226E-3,-5.184714869E-2,-1.015562657E-2
6.544179890E-1,8.323032409E-3,-4.482220486E-2,-7.712167688E-3
6.738787190E-1,1.229365356E-2,-3.168861195E-2,-4.505127668E-3
6.933393440E-1,1.840230078E-2,-2.206749097E-2,-1.450803829E-3
7.128000730E-1,2.222020552E-2,-1.412624773E-2,-2.061668551E-3
7.322608020E-1,2.741255611E-2,-6.032289471E-3,-5.268708803E-3
7.517214270E-1,3.229947388E-2,7.635809743E-5,-8.781181648E-3
7.711821560E-1,3.306305781E-2,7.864884101E-3,-9.239329956E-3
7.906428850E-1,3.321577236E-2,1.977674663E-2,-5.115992390E-3
8.101035100E-1,3.046688065E-2,1.687514037E-2,-1.450803829E-3
8.295642390E-1,3.489565104E-2,1.183550525E-2,2.061668551E-3
8.490249690E-1,4.543306679E-2,6.490438245E-3,1.450803829E-3
8.684855940E-1,4.054614902E-2,-2.367100911E-3,-2.214384731E-3
8.879463230E-1,2.832885459E-2,-1.030834299E-2,-5.574141163E-3
9.074069480E-1,2.634354308E-2,-5.574141163E-3,-8.323032409E-3
9.268676770E-1,3.092502989E-2,-4.657844082E-3,-9.239329956E-3
9.463284060E-1,3.199404106E-2,-9.239329956E-3,-6.643154658E-3
9.657890310E-1,2.283107117E-2,-2.252563834E-2,-5.726857111E-3
9.852497600E-1,1.259908639E-2,-3.153589368E-2,-5.574141163E-3
1.004710489E0,8.475748822E-3,-3.428478539E-2,-5.115992390E-3
1.024171114E0,7.254019380E-3,-3.046688065E-2,-3.588830587E-3
1.043631844E0,1.756236190E-3,-1.198822167E-2,-3.436114406E-3
1.063092573E0,-5.726857111E-3,2.038761228E-2,-2.825249685E-3
1.082553198E0,6.337722298E-3,4.711294547E-2,-7.635809743E-5
1.102013927E0,2.634354308E-2,6.635518372E-2,6.337722298E-3
1.121474656E0,3.779725730E-2,7.338013500E-2,1.382081583E-2
1.140935281E0,4.054614902E-2,6.742420048E-2,2.283107117E-2
1.160396010E0,4.237874225E-2,7.338013500E-2,2.664897591E-2
1.179856635E0,5.703949928E-2,9.644027799E-2,3.184132650E-2
1.199317364E0,7.108938694E-2,1.239291951E-1,3.810269013E-2
1.218778094E0,7.429642975E-2,1.289688200E-1,3.932442144E-2
1.238238719E0,7.506000996E-2,1.132390574E-1,3.214675933E-2
1.257699448E0,6.207913160E-2,9.598212689E-2,1.702785492E-2
1.277160177E0,3.459021822E-2,7.444914430E-2,-2.367100911E-3
1.296620802E0,1.046105940E-2,6.055197120E-2,-2.023489587E-2
1.316081531E0,7.635809743E-5,4.039343446E-2,-3.229947388E-2
1.335542260E0,-1.107192412E-2,2.160934173E-2,-3.871355578E-2
1.355002885E0,-3.046688065E-2,1.718057133E-2,-4.314232618E-2
1.374463614E0,-3.642281145E-2,1.534797717E-2,-4.146244749E-2
1.393924344E0,-2.374736778E-2,8.475748822E-3,-3.565923125E-2
1.413384969E0,-1.840230078E-2,-2.977965865E-3,-3.046688065E-2
1.432845698E0,-3.886627033E-2,-3.741546767E-3,-3.138317913E-2
1.452306427E0,-4.970912263E-2,-5.879573524E-3,-3.214675933E-2
1.471767052E0,-4.940368980E-2,9.926552884E-4,-2.557996288E-2
1.491227781E0,-4.634936526E-2,1.565340906E-2,-1.519526169E-2
1.510688406E0,-1.779143699E-2,2.939786762E-2,4.352411721E-3
1.530149135E0,-4.657844082E-3,2.542724647E-2,2.359465137E-2
1.549609864E0,4.046979360E-3,-4.046979360E-3,3.382663801E-2
1.569070489E0,1.855501719E-2,-4.421133921E-2,3.611737862E-2
1.588531219E0,2.909243479E-2,-5.978839099E-2,3.657552972E-2
1.607991948E0,2.222020552E-2,-3.611737862E-2,3.520108387E-2
1.627452573E0,2.283107117E-2,-1.275180187E-2,3.153589368E-2
1.646913302E0,3.092502989E-2,-2.557996288E-2,2.512181364E-2
1.666374031E0,3.794997558E-2,-4.894553870E-2,2.130390890E-2
1.685834656E0,2.771798894E-2,-7.368556410E-2,2.054032870E-2
1.705295385E0,-7.101302966E-3,-1.010217592E-1,5.574141163E-3
1.724756114E0,-3.031416424E-2,-1.066722646E-1,-2.237292193E-2
1.744216739E0,-1.076649129E-2,-9.827287495E-2,-5.215258151E-2
1.763677469E0,3.443750367E-2,-8.849903196E-2,-6.268999726E-2
1.783138198E0,6.650790572E-2,-9.399681538E-2,-6.650790572E-2
1.802598823E0,8.941533417E-2,-1.611919403E-1,-8.712458611E-2
1.822059552E0,1.185841262E-1,-2.757290900E-1,-1.016326249E-1
1.841520281E0,1.524871141E-1,-3.853793144E-1,-1.169042438E-1
1.860980906E0,2.117410004E-1,-4.734965563E-1,-1.140026376E-1
1.880441635E0,2.920697331E-1,-5.167152286E-1,-9.903645515E-2
1.899902364E0,3.079521954E-1,-4.970148504E-1,-1.025489271E-1
1.919362989E0,2.836703360E-1,-4.722748399E-1,-1.417969912E-1
1.938823719E0,2.700785995E-1,-4.788416326E-1,-1.981492639E-1
1.958284344E0,2.891681194E-1,-4.960985482E-1,-2.485456020E-1
1.977745073E0,3.536143601E-1,-5.264890790E-1,-2.596938908E-1
1.997205802E0,4.041634202E-1,-5.585594773E-1,-2.509890795E-1
2.016666427E0,3.869064748E-1,-5.538252592E-1,-2.702313066E-1
2.036127156E0,3.085630834E-1,-5.684860349E-1,-2.990946770E-1
2.055587885E0,2.221257091E-1,-5.570323467E-1,-3.249036968E-1
2.075048510E0,1.182786897E-1,-5.464949012E-1,-3.378845751E-1
2.094509239E0,-1.748600416E-2,-5.683333278E-1,-3.516290486E-1
2.113969969E0,-1.700494885E-1,-6.369028687E-1,-3.659843504E-1
2.133430698E0,-3.450622559E-1,-7.488438487E-1,-3.601811528E-1
2.152891323E0,-4.296670258E-1,-8.187878728E-1,-3.343721032E-1
2.172352052E0,-3.983601928E-1,-8.135955334E-1,-2.792415619E-1
2.191812781E0,-4.011090994E-1,-7.942005992E-1,-2.074649483E-1
2.211273406E0,-4.657080472E-1,-8.164971471E-1,-1.462257504E-1
2.230734135E0,-5.807033181E-1,-7.974076271E-1,-1.172096804E-1
2.250194864E0,-6.544652581E-1,-6.595048904E-1,-9.598212689E-2
2.269655489E0,-6.213258505E-1,-4.356229603E-1,-8.468113095E-2
2.289116219E0,-4.936550856E-1,-2.331212759E-1,-1.007163301E-1
2.308576948E0,-3.027598560E-1,-1.424078494E-1,-1.275943816E-1
2.328037573E0,-1.298851222E-1,-1.289688200E-1,-1.172096804E-1
2.347498302E0,-8.605557680E-2,-1.101847365E-1,-8.284853399E-2
2.366959031E0,-1.422551423E-1,-1.214093715E-2,-3.978256881E-2
2.386419656E0,-2.160170525E-1,1.572213173E-1,3.817904799E-4
2.405880385E0,-2.705367506E-1,2.535852492E-1,1.427896414E-2
2.425341114E0,-3.090212345E-1,2.586248815E-1,1.779143699E-2
2.444801739E0,-2.981783748E-1,2.694677114E-1,3.397935256E-2
2.464262469E0,-2.267071903E-1,2.664133906E-1,6.207913160E-2
2.483723198E0,-1.243873388E-1,2.515999377E-1,1.022434905E-1
2.503183823E0,-3.168861195E-2,2.676351368E-1,1.552360058E-1
2.522644552E0,9.705114365E-2,3.304014802E-1,2.358701676E-1
2.542105281E0,2.732856274E-1,3.925569654E-1,3.362047076E-1
2.561566010E0,4.490619600E-1,4.250855148E-1,4.478402436E-1
2.581026635E0,5.672643185E-1,3.887390792E-1,5.666534305E-1
2.600487364E0,5.290852785E-1,2.337321341E-1,6.066650748E-1
2.619948094E0,4.035525322E-1,1.109483168E-1,6.230056882E-1
2.639408719E0,1.676060259E-1,1.074358448E-1,6.734020710E-1
2.658869448E0,-1.666897237E-1,1.535561383E-1,6.375137568E-1
2.678330177E0,-3.869064748E-1,2.767980993E-1,4.782307744E-1
2.697790802E0,-3.413970470E-1,4.153116941E-1,2.722166181E-1
2.717251531E0,-8.116865903E-2,5.553524494E-1,1.332448870E-1
2.736712260E0,1.952476501E-1,6.401099563E-1,1.173623949E-1
2.756172885E0,4.105774760E-1,5.997928381E-1,1.434768587E-1
2.775633614E0,5.854375362E-1,4.415788651E-1,1.702021956E-1
2.795094344E0,6.624065042E-1,2.940550447E-1,2.219729871E-1
2.814554969E0,5.643627048E-1,2.592357397E-1,2.871828079E-1
2.834015698E0,3.614028692E-1,3.740783334E-1,2.992473841E-1
2.853476427E0,2.149480432E-1,6.390409470E-1,2.267071903E-1
2.872937052E0,2.135736048E-1,8.465822339E-1,1.085048541E-1
2.892397781E0,3.026071489E-1,8.404735923E-1,4.497491941E-2
2.911858510E0,3.236819804E-1,7.010436654E-1,9.086613543E-3
2.931319135E0,1.926514804E-1,4.883100390E-1,-1.779143699E-2
2.950779864E0,2.023489587E-2,3.684278131E-1,-1.794415340E-2
2.970240594E0,-9.873101860E-2,4.267654121E-1,-1.962403022E-2
2.989701219E0,-2.091448307E-1,6.078867912E-1,4.039343446E-2
3.009161948E0,-4.145480990E-1,7.412080765E-1,1.051450968E-1
3.028622677E0,-6.028471589E-1,7.906880975E-1,9.857830405E-2
3.048083302E0,-6.402626634E-1,6.486620307E-1,9.063705802E-2
3.067544031E0,-4.870882928E-1,4.446332157E-1,1.239291951E-1
3.087004760E0,-3.479638398E-1,3.103956580E-1,1.647044122E-1
3.106465385E0,-2.948186100E-1,1.311068535E-1,1.618028134E-1
3.125926114E0,-2.548069656E-1,-5.345066893E-4,1.222493127E-1
3.145386844E0,-2.488510460E-1,-4.650207981E-2,1.014799103E-1
3.164847573E0,-2.552651167E-1,1.611155830E-2,1.210275814E-1
3.184308198E0,-2.343430072E-1,5.429060757E-2,1.753945500E-1
3.203768927E0,-1.625663936E-1,2.313650399E-2,2.311359644E-1
3.223229656E0,-5.902481079E-2,-2.367100911E-3,2.419788092E-1
3.242690281E0,1.840230078E-2,-3.130682046E-3,2.141844630E-1
3.262151010E0,4.864010960E-2,-3.504836559E-2,1.589011997E-1
3.281611739E0,6.177370250E-2,-5.810851231E-2,9.674570709E-2
3.301072364E0,1.156825200E-1,1.336266659E-2,9.262236953E-2
3.320533094E0,1.636354029E-1,4.543306679E-2,1.529452652E-1
3.339993823E0,2.088394016E-1,8.758273721E-2,2.096029818E-1
3.359454448E0,2.157116234E-1,6.559160352E-2,2.173915058E-1
3.378915177E0,1.836412251E-1,8.972076327E-2,1.819613427E-1
3.398375906E0,1.703549176E-1,1.027016416E-1,1.559995860E-1
3.417836531E0,1.973856837E-1,2.160934173E-2,1.651625633E-1
3.437297260E0,2.372446060E-1,-3.565923125E-2,2.013563067E-1
3.456757989E0,2.427423894E-1,-4.680751264E-2,2.509890795E-1
3.476218614E0,2.613737583E-1,-1.364519149E-1,2.865719497E-1
3.495679344E0,3.155880272E-1,-2.523635030E-1,2.839757502E-1
3.515140073E0,3.785070777E-1,-2.557232678E-1,2.473238707E-1
3.534600802E0,3.771326542E-1,-1.088102907E-1,1.802814752E-1
3.554061427E0,3.543779254E-1,-4.115701467E-2,1.182786897E-1
3.573522156E0,3.316232264E-1,-6.757691503E-2,8.498656005E-2
3.592982885E0,2.841284871E-1,-1.303432733E-1,6.482802331E-2
3.612443510E0,1.792124510E-1,-1.839466542E-1,4.405862093E-2
3.631904239E0,6.834049523E-2,-1.845575273E-1,9.544761851E-3
3.651364969E0,1.886045001E-2,-1.407279670E-1,-5.345066893E-4
3.670825594E0,-5.115992390E-3,-1.027016416E-1,5.115992390E-3
3.690286323E0,-3.978256881E-2,-5.322159454E-2,-1.061377581E-2
3.709747052E0,-8.513928205E-2,-1.702785492E-2,-3.550651670E-2
3.729207677E0,-1.022434905E-1,7.635809743E-5,-6.895136088E-2
3.748668406E0,-3.367391974E-2,3.588830587E-3,-8.422297984E-2
3.768129135E0,7.719803602E-2,-7.864884101E-3,-7.124210149E-2
3.787589760E0,1.572213173E-1,-3.352120519E-2,-4.573849961E-2
3.807050489E0,2.054796368E-1,-4.222602770E-2,-3.672824427E-2
3.826511219E0,2.743546367E-1,-4.314232618E-2,-3.627009690E-2
3.845971844E0,3.572795391E-1,-4.069886729E-2,-2.939786762E-2
3.865432573E0,3.982074857E-1,-1.107192412E-2,-3.214675933E-2
3.884893302E0,3.818668425E-1,4.436405376E-2,-5.062541738E-2
3.904354031E0,3.343721032E-1,7.017309219E-2,-7.200568914E-2
3.923814656E0,2.662606835E-1,6.207913160E-2,-1.056032479E-1
3.943275385E0,1.749363989E-1,5.535962060E-2,-1.541669965E-1
3.962736010E0,4.344775900E-2,1.534797717E-2,-2.213621289E-1
3.982196739E0,-5.917752534E-2,-2.741255611E-2,-2.893208265E-1
4.001657469E0,-7.857248187E-2,2.985601686E-2,-3.259727061E-1
4.021118198E0,2.977965865E-3,1.590539217E-1,-2.641226649E-1
4.040578823E0,9.078978002E-2,1.848629564E-1,-1.198058575E-1
4.060039552E0,1.201112866E-1,1.575267613E-1,-2.619082667E-2
4.079500281E0,7.399099320E-2,1.479056329E-1,-4.283689335E-2
4.098960906E0,1.916588284E-2,1.503490955E-1,-1.340084672E-1
4.118421635E0,2.084576152E-2,1.413388401E-1,-2.205985487E-1
4.137882364E0,4.955640435E-2,1.063668281E-1,-2.302196622E-1
4.157342989E0,-2.519817324E-3,5.933023989E-2,-1.662315726E-1
4.176803719E0,-1.291215420E-1,-1.916588284E-2,-1.262199283E-1
4.196264448E0,-2.567922771E-1,-9.185878932E-2,-1.384372264E-1
4.215725073E0,-3.352884054E-1,-1.468366235E-1,-1.370627880E-1
4.235185802E0,-3.962221742E-1,-1.805869043E-1,-7.719803602E-2
4.254646531E0,-5.164098144E-1,-1.912770271E-1,-3.817904799E-4
4.274107156E0,-6.596575975E-1,-1.819613427E-1,3.214675933E-2
4.293567885E0,-7.121919990E-1,-1.795178801E-1,-5.421424750E-3
4.313028614E0,-5.967385173E-1,-1.729510874E-1,-5.474875495E-2
4.332489239E0,-3.858374655E-1,-1.408806890E-1,-5.322159454E-2
4.351949969E0,-2.181550860E-1,-1.240819097E-1,-6.834049523E-2
4.371410698E0,-1.702021956E-1,-9.980003536E-2,-1.585957706E-1
4.390871323E0,-1.955530941E-1,-4.955640435E-2,-2.714530230E-1
4.410332052E0,-2.296088040E-1,-1.504254527E-2,-3.444513679E-1
4.429792781E0,-2.822958827E-1,-3.443750367E-2,-3.458258212E-1
4.449253406E0,-3.618610203E-1,-1.155297980E-1,-2.745073736E-1
4.468714135E0,-4.589885175E-1,-2.202931046E-1,-1.595120728E-1
4.488174864E0,-4.231002033E-1,-4.696786702E-1,-7.063124329E-2
4.507635489E0,-1.605810821E-1,-8.218421936E-1,-1.107192412E-2
4.527096219E0,-1.514181048E-1,-4.418843091E-1,-1.027016416E-1
4.546556948E0,-2.706894577E-1,2.737437785E-1,-3.736201823E-1
4.566017573E0,2.756527252E-2,3.093266487E-1,-5.278635025E-1
4.585478302E0,5.561160445E-1,9.017891437E-2,-3.702604175E-1
4.604939031E0,7.909935117E-1,-2.863428742E-2,-2.097556889E-1
4.624399656E0,6.718748808E-1,-7.826705277E-2,-1.755472720E-1
4.643860385E0,4.143953919E-1,-3.894262947E-3,-1.929569095E-1
4.663321114E0,2.654971182E-1,1.089630052E-1,-1.941786408E-1
4.682781739E0,2.558759749E-1,6.391172856E-2,-1.564577371E-1
4.702242469E0,2.509890795E-1,-7.414371520E-2,-1.304959953E-1
4.721703198E0,2.120464295E-1,-1.434768587E-1,-1.460730433E-1
4.741163823E0,2.080758214E-1,-9.109520912E-2,-1.660788655E-1
4.760624552E0,2.810741663E-1,4.711294547E-2,-1.683696061E-1
4.780085281E0,3.774380684E-1,1.526398361E-1,-1.381317973E-1
4.799545906E0,4.131736755E-1,1.135444939E-1,-9.781472385E-2
4.819006635E0,3.748418987E-1,1.962403022E-2,-7.857248187E-2
4.838467364E0,2.822958827E-1,-5.795579776E-2,-6.895136088E-2
4.857927989E0,1.350774765E-1,-1.007163301E-1,-4.940368980E-2
4.877388719E0,-3.291033953E-2,-9.460768104E-2,-3.260490671E-2
4.896849448E0,-1.866955459E-1,-5.520690605E-2,-3.199404106E-2
4.916310073E0,-2.971093655E-1,7.406735327E-3,-2.939786762E-2
4.935770802E0,-3.450622559E-1,5.581776798E-2,-4.352411721E-3
4.955231531E0,-3.403280377E-1,7.475458086E-2,6.009382382E-2
4.974692156E0,-3.244455457E-1,6.803506613E-2,1.314122826E-1
4.994152885E0,-3.206276596E-1,3.657552972E-2,1.944840699E-1
5.013613614E0,-2.832121849E-1,2.542724647E-2,2.529743910E-1
5.033074239E0,-2.076176703E-1,3.367391974E-2,3.325395286E-1
5.052534969E0,-1.828776449E-1,2.985601686E-2,3.778962195E-1
5.071995698E0,-2.105192691E-1,-4.940368980E-2,3.368155658E-1
5.091456323E0,-2.424369603E-1,-9.567669779E-2,2.630536556E-1
5.110917052E0,-2.682459950E-1,1.107192412E-2,1.895971596E-1
5.130377781E0,-2.570977211E-1,2.132681608E-1,1.854738146E-1
5.149838406E0,-2.471711636E-1,3.730092943E-1,1.979965419E-1
5.169299135E0,-2.267071903E-1,4.172970057E-1,1.946367919E-1
5.188759864E0,-1.589011997E-1,3.623191714E-1,1.673005968E-1
5.208220489E0,-5.352702737E-2,2.575558722E-1,1.291215420E-1
5.227681219E0,3.871355578E-2,1.656207144E-1,1.014799103E-1
5.247141948E0,8.972076327E-2,1.505018175E-1,7.979421318E-2
5.266602573E0,1.286633909E-1,1.837939471E-1,4.986183718E-2
5.286063302E0,1.559995860E-1,2.355647236E-1,1.397353224E-2
5.305524031E0,1.434768587E-1,2.586248815E-1,-2.160934173E-2
5.324984656E0,1.071304083E-1,2.486983240E-1,-5.016727000E-2
5.344445385E0,8.361211419E-2,1.637881249E-1,-7.215840369E-2
5.363906114E0,9.109520912E-2,3.168861195E-2,-8.193223923E-2
5.383366844E0,1.117118970E-1,-1.109483168E-1,-6.085740402E-2
5.402827469E0,1.176678315E-1,-1.763108522E-1,-1.412624773E-2
5.422288198E0,1.190422773E-1,-1.245400533E-1,4.848739132E-2
5.441748927E0,1.098793000E-1,-5.115992390E-3,8.910989761E-2
5.461209552E0,6.757691503E-2,9.445496649E-2,8.956804872E-2
5.480670281E0,1.298087649E-3,1.428660005E-1,6.895136088E-2
5.500131010E0,-6.498073786E-2,1.327867359E-1,4.680751264E-2
5.519591635E0,-1.046869531E-1,9.048434347E-2,2.420551702E-2
5.539052364E0,-1.056032479E-1,4.528035223E-2,1.168278884E-2
5.558513094E0,-7.841976732E-2,2.649625950E-2,6.032289471E-3
5.577973719E0,-3.657552972E-2,2.344193682E-2,8.323032409E-3
5.597434448E0,4.963276442E-3,1.718057133E-2,2.771798894E-2
5.616895177E0,2.023489587E-2,9.544761851E-3,4.069886729E-2
5.636355802E0,2.313650399E-2,1.756236190E-3,3.932442144E-2
5.655816531E0,1.977674663E-2,-1.908952487E-3,3.565923125E-2
5.675277260E0,1.397353224E-2,7.101302966E-3,3.764454275E-2
5.694737885E0,-7.559451740E-3,8.475748822E-3,4.848739132E-2
5.714198614E0,-4.329504073E-2,-1.756236190E-3,6.101011857E-2
5.733659344E0,-5.688678101E-2,-9.392046370E-3,6.375901401E-2
5.753120073E0,-4.940368980E-2,-1.855501719E-2,5.276344717E-2
5.772580698E0,-4.741837829E-2,-1.519526169E-2,3.565923125E-2
5.792041427E0,-6.666062027E-2,-3.123046272E-2,1.595884189E-2
5.811502156E0,-6.406444311E-2,-7.047852129E-2,1.298087649E-3
5.830962781E0,-4.130972922E-2,-1.208748668E-1,4.810560029E-3
5.850423510E0,-3.397935256E-2,-1.573740393E-1,1.809686981E-2
5.869884239E0,-3.642281145E-2,-1.789070219E-1,2.756527252E-2
5.889344864E0,-4.436405376E-2,-1.692859083E-1,2.512181364E-2
5.908805594E0,-6.559160352E-2,-1.332448870E-1,7.254019380E-3
5.928266323E0,-9.292780608E-2,-9.644027799E-2,-1.320995111E-2
5.947726948E0,-1.086575761E-1,-5.749764666E-2,-2.115119249E-2
5.967187677E0,-1.095738709E-1,-1.840230078E-2,-1.091920771E-2
5.986648406E0,-1.060613990E-1,6.490438245E-3,3.130682046E-3
6.006109135E0,-8.208495378E-2,1.809686981E-2,4.505127668E-3
6.025569760E0,-3.764454275E-2,2.435823344E-2,8.399390499E-4
6.045030489E0,1.076649129E-2,3.642281145E-2,1.145371469E-3
6.064491219E0,5.535962060E-2,3.504836559E-2,1.458439697E-2
6.083951844E0,8.895718306E-2,3.031416424E-2,3.077231348E-2
6.103412573E0,1.173623949E-1,2.283107117E-2,3.535379842E-2
6.122873302E0,1.456148922E-1,5.421424750E-3,3.825540841E-2
6.142333927E0,1.450040340E-1,-1.809686981E-2,3.932442144E-2
6.161794656E0,1.335503161E-1,-3.794997558E-2,3.443750367E-2
6.181255385E0,1.251509190E-1,-4.787652567E-2,3.382663801E-2
6.200716114E0,1.141553521E-1,-4.589121789E-2,3.871355578E-2
6.220176739E0,9.094249457E-2,-2.893971838E-2,3.153589368E-2
6.239637469E0,6.314814836E-2,-7.254019380E-3,1.656970754E-2
6.259098198E0,4.222602770E-2,1.030834299E-2,-1.145371469E-3
6.278558927E0,4.314232618E-2,1.427896414E-2,-7.254019380E-3
6.298019552E0,6.238456443E-2,1.534797717E-2,-2.061668551E-3
6.317480281E0,7.567087561E-2,2.710712515E-2,3.588830587E-3
6.336941010E0,6.772962958E-2,5.688678101E-2,-8.933897130E-3
6.356401635E0,6.375901401E-2,8.162680268E-2,-3.291033953E-2
6.375862364E0,6.650790572E-2,9.078978002E-2,-4.757109284E-2
6.395323094E0,6.986765563E-2,9.155336022E-2,-4.848739132E-2
6.414783823E0,9.078978002E-2,8.529199660E-2,-3.336848691E-2
6.434244448E0,9.613484144E-2,8.819360286E-2,-1.870773360E-2
6.453705177E0,6.727148592E-2,1.253036410E-1,-1.931859925E-2
6.473165906E0,2.527453005E-2,1.782961637E-1,-3.794997558E-2
6.492626531E0,-2.176205814E-2,1.938732117E-1,-5.688678101E-2
6.512087260E0,-4.451677203E-2,1.592066288E-1,-5.841394514E-2
6.531547989E0,-3.245219216E-2,1.027016416E-1,-5.169443041E-2
6.551007445E0,-8.475748822E-3,5.749764666E-2,-4.283689335E-2
6.570468175E0,7.712167688E-3,3.214675933E-2,-4.054614902E-2
6.589928904E0,1.626427472E-2,2.008217946E-2,-4.085158184E-2
6.609389633E0,2.176205814E-2,1.229365356E-2,-4.314232618E-2
6.628850258E0,2.695440874E-2,9.544761851E-3,-4.268417507E-2
6.648310987E0,3.077231348E-2,1.756236190E-3,-3.978256881E-2
6.667771716E0,3.367391974E-2,-1.748600416E-2,-3.336848691E-2
6.687232445E0,3.413207084E-2,-4.268417507E-2,-2.222020552E-2
6.706693070E0,3.061959706E-2,-5.444332212E-2,-1.137735695E-2
6.726153800E0,1.351538301E-2,-3.917170316E-2,-7.712167688E-3
6.745614529E0,-1.809686981E-2,-2.344193682E-2,-1.061377581E-2
6.765075154E0,-6.681333482E-2,-1.366809942E-2,-1.718057133E-2
6.784535883E0,-1.095738709E-1,-9.850194678E-3,-2.313650399E-2
6.803996612E0,-1.222493127E-1,-2.878700197E-2,-1.626427472E-2
6.823457341E0,-1.165988147E-1,-4.360047355E-2,-9.697478265E-3
6.842917966E0,-1.019380614E-1,-6.070468575E-2,-1.458439697E-2
6.862378695E0,-4.268417507E-2,-8.849903196E-2,-2.313650399E-2
6.881839425E0,1.947131567E-2,-1.282052398E-1,-3.283398226E-3
6.901300154E0,2.023489587E-2,-7.231111825E-2,1.580612548E-2
6.920760779E0,1.718057133E-2,-1.168278884E-2,8.323032409E-3
6.940221508E0,7.643445581E-2,-3.031416424E-2,-2.672533505E-3
6.959682237E0,1.259144992E-1,-5.108356848E-2,3.016144782E-2
6.979142862E0,1.086575761E-1,-1.886045001E-2,7.796161622E-2
6.998603591E0,7.506000996E-2,3.688096255E-2,8.804088831E-2
7.018064320E0,7.903063297E-2,4.680751264E-2,6.818778068E-2
7.037525050E0,1.098793000E-1,-5.345066893E-4,4.268417507E-2
7.056985675E0,1.129336283E-1,-3.306305781E-2,1.427896414E-2
7.076446404E0,9.094249457E-2,-2.496909723E-2,-3.283398226E-3
7.095907133E0,7.551816106E-2,1.137735695E-2,5.345066893E-4
7.115367862E0,7.597630471E-2,2.725984156E-2,1.229365356E-2
7.134828487E0,7.078395784E-2,-8.399390499E-4,1.305723470E-2
7.154289216E0,4.772381112E-2,-5.077813566E-2,-5.574141163E-3
7.173749945E0,2.787070535E-2,-7.658717036E-2,-3.428478539E-2
7.193210675E0,1.886045001E-2,-7.124210149E-2,-5.352702737E-2
7.212671300E0,-7.635809743E-5,-4.879282415E-2,-5.902481079E-2
7.232132029E0,-1.030834299E-2,-2.252563834E-2,-5.383246019E-2
7.251592758E0,8.628465235E-3,-6.948587019E-3,-4.085158184E-2
7.271053487E0,3.550651670E-2,-2.825249685E-3,-2.771798894E-2
7.290514112E0,6.268999726E-2,-9.697478265E-3,-2.619082667E-2
7.309974841E0,8.101594448E-2,-1.611155830E-2,-3.123046272E-2
7.329435570E0,8.743002266E-2,-2.466366626E-2,-3.000873141E-2
7.348896300E0,1.017853469E-1,-3.917170316E-2,-2.405280061E-2
7.368356925E0,1.182786897E-1,-3.520108387E-2,-1.641699113E-2
7.387817654E0,1.237764731E-1,-2.710712515E-2,-7.406735327E-3
7.407278383E0,1.130863428E-1,-1.473711245E-2,-3.283398226E-3
7.426739112E0,1.022434905E-1,-1.595884189E-2,-4.199695308E-3
7.446199737E0,1.033125073E-1,-2.588539571E-2,-6.490438245E-3
7.465660466E0,1.045342386E-1,-4.314232618E-2,-7.864884101E-3
7.485121195E0,9.842558950E-2,-5.184714869E-2,-4.657844082E-3
7.504581925E0,8.345939964E-2,-5.398517475E-2,-4.352411721E-3
7.524042550E0,6.543888897E-2,-3.703367710E-2,-3.283398226E-3
7.543503279E0,3.932442144E-2,-1.962403022E-2,-1.450803829E-3
7.562964008E0,2.176205814E-2,-2.344193682E-2,-4.199695308E-3
7.582424737E0,1.595884189E-2,-3.733910993E-2,-7.101302966E-3
7.601885362E0,1.290451828E-2,-4.237874225E-2,-6.948587019E-3
7.621346091E0,6.490438245E-3,-2.466366626E-2,-6.185005885E-3
7.640806820E0,-6.032289471E-3,1.214093715E-2,-1.030834299E-2
7.660267550E0,-1.412624773E-2,4.818195850E-2,-1.992946304E-2
7.679728279E0,-3.588830587E-3,5.826122686E-2,-2.222020552E-2
7.699188904E0,1.137735695E-2,5.367974192E-2,-5.726857111E-3
7.718649633E0,1.061377581E-2,2.985601686E-2,1.580612548E-2
7.738110362E0,1.450803829E-3,1.443168055E-2,2.344193682E-2
7.757571091E0,-7.712167688E-3,3.260490671E-2,1.473711245E-2
7.777031716E0,-2.283107117E-2,5.291616172E-2,4.046979360E-3
7.796492445E0,-2.741255611E-2,4.619665071E-2,7.406735327E-3
7.815953175E0,-3.092502989E-2,7.406735327E-3,9.239329956E-3
7.835413904E0,-3.642281145E-2,-2.328922041E-2,5.726857111E-3
7.854874529E0,-2.878700197E-2,-1.183550525E-2,1.603520010E-3
7.874335258E0,-1.656970754E-2,2.069304511E-2,3.817904799E-4
7.893795987E0,-7.406735327E-3,3.810269013E-2,4.963276442E-3
7.913256716E0,-3.894262947E-3,2.573267929E-2,5.574141163E-3
7.932717445E0,-6.948587019E-3,2.672533505E-3,1.603520010E-3
7.952178070E0,-1.305723470E-2,-7.864884101E-3,-2.825249685E-3
7.971638800E0,-1.427896414E-2,-8.170315996E-3,-2.977965865E-3
7.991099529E0,-6.948587019E-3,-7.101302966E-3,6.872228696E-4
8.010560258E0,-6.032289471E-3,-4.963276442E-3,7.406735327E-3
8.030020883E0,-1.076649129E-2,-1.153007243E-2,1.336266659E-2
8.049481612E0,-1.687514037E-2,-3.092502989E-2,1.275180187E-2
8.068942341E0,-1.870773360E-2,-4.634936526E-2,9.544761851E-3
8.088403070E0,-2.710712515E-2,-4.390590638E-2,7.254019380E-3
8.107863800E0,-3.733910993E-2,-3.046688065E-2,3.741546767E-3
8.127324425E0,-4.375318810E-2,-1.733328775E-2,-5.345066893E-4
8.146785154E0,-4.100430012E-2,-1.244636998E-2,-8.399390499E-4
8.166245883E0,-3.504836559E-2,-2.008217946E-2,2.519817324E-3
8.185706612E0,-3.397935256E-2,-2.939786762E-2,6.337722298E-3
8.205167237E0,-2.878700197E-2,-2.970330045E-2,5.421424750E-3
8.224627966E0,-1.779143699E-2,-1.779143699E-2,6.337722298E-3
8.244088695E0,-1.580612548E-2,-3.894262947E-3,5.115992390E-3
8.263549425E0,-2.603811212E-2,1.145371469E-3,1.450803829E-3
8.283010154E0,-3.275762498E-2,-6.032289471E-3,-1.450803829E-3
8.302470779E0,-3.153589368E-2,-1.947131567E-2,4.046979360E-3
8.321931508E0,-2.451094985E-2,-3.138317913E-2,1.229365356E-2
8.341392237E0,-2.542724647E-2,-2.695440874E-2,1.580612548E-2
8.360852966E0,-1.992946304E-2,-1.122464053E-2,1.000291109E-2
8.380313695E0,-1.298087649E-3,-9.086613543E-3,2.519817324E-3
8.399774320E0,1.244636998E-2,-1.565340906E-2,5.115992390E-3
8.419235050E0,2.130390890E-2,-3.000873141E-2,8.933897130E-3
8.438695779E0,3.138317913E-2,-4.222602770E-2,1.214093715E-2
8.458156508E0,4.604393244E-2,-5.902481079E-2,1.427896414E-2
8.477617237E0,6.543888897E-2,-6.727148592E-2,1.626427472E-2
8.497077862E0,7.536543906E-2,-6.788235158E-2,1.550069358E-2
8.516538591E0,7.093667239E-2,-7.200568914E-2,1.290451828E-2
8.535999320E0,6.864593178E-2,-7.353284955E-2,7.406735327E-3
8.555460050E0,7.414371520E-2,-8.498656005E-2,7.406735327E-3
8.574920779E0,8.361211419E-2,-1.056032479E-1,1.931859925E-2
8.594381404E0,8.269581944E-2,-1.141553521E-1,3.520108387E-2
8.613842133E0,6.620246917E-2,-1.156825200E-1,3.245219216E-2
8.633302862E0,5.627591908E-2,-1.237764731E-1,2.802342176E-2
8.652763591E0,6.345357746E-2,-1.474474818E-1,4.054614902E-2
8.672224320E0,7.139482349E-2,-1.833357960E-1,5.444332212E-2
8.691684945E0,9.582941234E-2,-2.089921087E-1,6.452259421E-2
8.711145675E0,1.332448870E-1,-2.421315312E-1,6.024653837E-2
8.730606404E0,1.639408320E-1,-3.161988854E-1,2.893971838E-2
8.750067133E0,1.598175019E-1,-4.388299882E-1,-3.611737862E-2
8.769527862E0,8.849903196E-2,-5.869646668E-1,-1.066722646E-1
8.788988487E0,-4.848739132E-2,-7.343358397E-1,-1.179732606E-1
8.808449216E0,-2.041051984E-1,-8.000037670E-1,-7.124210149E-2
8.827909945E0,-2.725220621E-1,-6.734020710E-1,4.558578506E-2
8.847370675E0,-2.743546367E-1,-3.979020417E-1,1.958585232E-1
8.866831404E0,-2.195295244E-1,-1.286633909E-1,2.699258626E-1
8.886292029E0,-1.165988147E-1,1.427896414E-2,2.761872411E-1
8.905752758E0,-1.229365356E-2,-5.612320080E-2,3.285689056E-1
8.925213487E0,-9.537126124E-2,-5.055669546E-1,3.302487731E-1
8.944674216E0,-3.450622559E-1,-9.602030516E-1,8.391755074E-2
8.964134945E0,-3.447568119E-1,-7.146354318E-1,2.771798894E-2
8.983595675E0,-3.563632369E-1,3.507127464E-1,1.353829056E-1
9.003056300E0,-2.815323174E-1,9.938006401E-1,2.822958827E-1
9.022517029E0,-1.443168055E-2,6.558396816E-1,1.367573589E-1
9.041977758E0,1.630245447E-1,2.835176289E-1,1.244636998E-2
9.061438487E0,1.949422210E-1,1.547778696E-1,-7.338013500E-2
9.080899216E0,2.490037531E-1,2.160934173E-2,-9.476039559E-2
9.100359945E0,3.517817557E-1,-9.323323518E-2,-6.391172856E-2
9.119820675E0,3.904189467E-1,3.978256881E-2,-1.137735695E-2
9.139281300E0,2.815323174E-1,5.144245028E-1,3.917170316E-2
9.158742029E0,1.040760875E-1,1.000061989E0,5.421424750E-3
9.178202758E0,-4.970912263E-2,9.936479330E-1,-6.177370250E-2
9.197663487E0,-5.597048625E-2,7.630464435E-1,-1.184314117E-1
9.217124216E0,5.199986324E-2,3.569740951E-1,-1.515708268E-1
9.236584841E0,1.561523080E-1,1.076649129E-2,-8.345939964E-2
9.256045570E0,2.059377879E-1,1.445458829E-1,-3.565923125E-2
9.275506300E0,1.474474818E-1,4.760927260E-1,-2.237292193E-2
9.294967029E0,-8.399390499E-4,5.953640938E-1,-2.832885459E-2
9.314427758E0,-1.911243200E-1,4.023308158E-1,-5.276344717E-2
9.333888487E0,-3.284161687E-1,9.903645515E-2,-6.268999726E-2
9.353349112E0,-3.476584256E-1,-1.851683855E-1,-5.749764666E-2
9.372809841E0,-2.815323174E-1,-3.533089161E-1,-5.413788930E-2
9.392270570E0,-4.678460658E-1,-5.684860349E-1,-1.535561383E-1
9.411731300E0,-7.661007643E-1,-7.302125096E-1,-2.007454336E-1
9.431192029E0,-9.759328365E-1,-7.485384345E-1,-5.749764666E-2
9.450652758E0,-1.080085278E0,-7.380009890E-1,-4.353175163E-1
9.470113487E0,2.257908881E-1,-1.599167585E0,-3.756054938E-1
9.489574112E0,5.648208261E-1,7.124974132E-1,3.283398226E-3
9.509034841E0,4.547124803E-1,1.514257431E0,-1.992182732E-1
9.528495570E0,6.202568412E-1,1.150182009E0,-5.337430909E-2
9.547956300E0,7.396808863E-1,6.921861768E-1,1.353829056E-1
9.567417029E0,3.102429509E-1,4.840339720E-1,2.685514390E-1
9.586877758E0,-3.746891916E-1,4.218784869E-1,3.232238293E-1
9.606338487E0,-6.243801713E-1,2.798524201E-1,2.841284871E-1
9.625799112E0,-2.074649483E-1,6.253728271E-2,8.009964228E-2
9.645259841E0,2.777144015E-1,-7.765618712E-2,-5.268708803E-3
9.664720570E0,2.743546367E-1,-2.658025324E-1,1.289688200E-1
9.684181300E0,1.076649129E-2,-4.289034307E-1,1.370627880E-1
9.703642029E0,-1.417969912E-1,-3.950004280E-1,-2.985601686E-2
9.723102758E0,-1.570686102E-1,-1.729510874E-1,-1.850156635E-1
9.742563487E0,-1.013271958E-1,1.136972085E-1,-2.092975378E-1
9.762024112E0,-1.459203213E-1,3.436878026E-1,-1.517235339E-1
9.781484841E0,-2.534325123E-1,3.525453210E-1,-5.535962060E-2
9.800945570E0,-4.171442986E-1,-2.519817324E-3,8.009964228E-2
9.820406300E0,-8.548288941E-1,-4.602102637E-1,6.070468575E-2
9.839867029E0,-9.424880147E-1,-1.811443090E0,-3.155880272E-1
9.859327758E0,1.168278884E-2,-3.270646334E0,-1.450803829E-3
9.878788487E0,2.519053519E-1,1.804341823E-1,6.543125510E-1
9.898249216E0,2.621373534E-1,1.601152897E0,3.884336352E-1
9.917709841E0,3.333030939E-1,1.394680619E0,1.049923822E-1
9.937170570E0,5.631409883E-1,5.542834401E-1,-2.451094985E-2
9.956631300E0,7.661007643E-1,-2.305250913E-1,-5.352702737E-2
9.976092029E0,9.389755130E-1,-2.468657345E-1,3.436114406E-3
9.995552758E0,7.436515093E-1,7.246383280E-2,-5.429060757E-2
1.001501349E1,2.154061943E-1,4.052324295E-1,-1.628718227E-1
1.003447422E1,-2.120464295E-1,3.510181606E-1,-2.404516488E-1
1.005393484E1,-2.062432170E-1,-2.878700197E-2,-2.225838602E-1
1.007339557E1,-4.634936526E-2,-3.627009690E-2,-8.391755074E-2
1.009285630E1,9.239329956E-3,1.967748106E-1,2.603811212E-2
1.011231703E1,-5.871937796E-2,2.847393453E-1,1.115591824E-1
1.013177776E1,-1.358410567E-1,3.375791609E-1,2.466366626E-2
1.015123849E1,-2.997055352E-1,1.650098413E-1,-6.070468575E-2
1.017069922E1,-5.237401724E-1,-1.857792437E-1,-5.841394514E-2
1.019015995E1,-7.108175159E-1,-5.820778012E-1,6.803506613E-2
1.020962057E1,-1.252196431E0,-8.925498128E-1,-2.405280061E-2
1.022908130E1,-1.688201189E0,-9.831104875E-1,-3.200167716E-1
1.024854203E1,-1.011363029E0,-1.036561131E0,-6.892845631E-1
1.026800276E1,7.184533477E-1,-1.344589710E0,9.576069117E-1
1.028746349E1,3.667479455E-1,1.355890751E0,6.992111206E-1
1.030692422E1,1.143080741E-1,1.745469809E0,1.886045001E-2
1.032638495E1,6.161335111E-1,9.371429086E-1,-1.275943816E-1
1.034584568E1,8.348230720E-1,2.673296928E-1,6.513345987E-2
1.036530640E1,2.120464295E-1,2.534325123E-1,3.849211633E-1
1.038476703E1,-4.093557596E-1,5.503128171E-1,4.570032060E-1
1.040422776E1,-2.622900605E-1,7.764855027E-1,2.619846463E-1
1.042368849E1,3.969857395E-1,6.546179652E-1,-1.733328775E-2
1.044314922E1,5.535198450E-1,4.085921645E-1,-7.689260691E-2
1.046260994E1,1.333975941E-1,2.935968935E-1,-1.515708268E-1
1.048207068E1,-1.576794684E-1,2.057850659E-1,-8.116865903E-2
1.050153140E1,-1.376736462E-1,1.169042438E-1,9.903645515E-2
1.052099213E1,1.244636998E-2,3.825540841E-2,3.714821339E-1
1.054045286E1,4.375318810E-2,-7.490729541E-2,4.570032060E-1
1.055991349E1,-7.994692773E-2,-2.349538654E-1,3.664425015E-1
1.057937422E1,-3.126864135E-1,-4.469239414E-1,2.705367506E-1
1.059883494E1,-9.073632956E-1,-7.027235627E-1,9.392046370E-3
1.061829568E1,-1.468747973E0,-1.165759087E0,-4.933496714E-1
1.063775640E1,-4.525744319E-1,-2.667722940E0,-2.578612864E-1
1.065721713E1,-4.741837829E-2,-7.769436240E-1,6.981421113E-1
1.067667786E1,4.260018170E-1,1.312213898E0,5.597811937E-1
1.069613859E1,6.608793139E-1,9.102649093E-1,9.903645515E-2
1.071559932E1,9.464586377E-1,-4.657844082E-3,-3.192532063E-1
1.073506005E1,9.534835815E-1,-6.416370869E-1,-4.608211219E-1
1.075452078E1,9.350048900E-1,-6.306415200E-1,-4.519635737E-1
1.077398151E1,7.807615399E-1,-1.650098413E-1,-4.592939615E-1
1.079344213E1,3.282634616E-1,2.699258626E-1,-4.292088747E-1
1.081290286E1,-1.564577371E-1,3.134499788E-1,-3.110065162E-1
1.083236359E1,-3.600284159E-1,2.939786762E-2,-1.775325835E-1
1.085182432E1,-3.546833694E-1,5.673406646E-2,-3.260490671E-2
1.087128505E1,-3.696495593E-1,2.777144015E-1,-1.580612548E-2
1.089074578E1,-5.263363719E-1,3.203222156E-1,-6.574432552E-2
1.091020651E1,-6.259073019E-1,2.515999377E-1,-1.976911128E-1
1.092966724E1,-5.668061376E-1,1.827249229E-1,-2.942077518E-1
1.094912797E1,-4.530325830E-1,8.452841640E-2,-2.488510460E-1
1.096858870E1,-4.870882928E-1,-2.109774202E-1,-1.584430486E-1
1.098804932E1,-9.401972294E-1,-7.914516926E-1,-1.503490955E-1
1.100751005E1,-1.712635756E0,-1.451032877E0,-3.099375069E-1
1.102697078E1,-1.291291833E0,-1.925063968E0,-3.843103051E-1
1.104643151E1,-7.002037764E-2,-4.047742784E-1,3.540725112E-1
1.106589224E1,4.521162808E-1,1.365359187E0,6.020836234E-1
1.108535297E1,9.565379024E-1,9.954805374E-1,3.320813775E-1
1.110481370E1,1.181946993E0,1.327867359E-1,2.265544683E-1
1.112427443E1,9.910517335E-1,-2.577085793E-1,2.760345340E-1
1.114373515E1,5.851321220E-1,-2.410625070E-1,2.668715417E-1
1.116319588E1,2.971093655E-1,2.025780380E-1,1.610392332E-1
1.118265661E1,2.201403975E-1,1.080543399E0,-6.185005885E-3
1.120211734E1,3.465894163E-1,1.555948973E0,-8.223766834E-2
1.122157807E1,2.998582423E-1,1.274187565E0,-2.817613818E-2
1.124103880E1,-1.016326249E-1,5.778017044E-1,-5.169443041E-2
1.126049942E1,-3.930151165E-1,5.612320080E-2,-1.311068535E-1
1.127996015E1,-4.374555349E-1,-1.393535286E-1,-5.413788930E-2
1.129942088E1,-4.041634202E-1,-5.230529606E-2,1.685223281E-1
1.131888161E1,-3.649153411E-1,1.871536970E-1,4.206567705E-1
1.133834234E1,-2.538906634E-1,3.357465565E-1,5.570323467E-1
1.135780307E1,-6.141481996E-1,1.341611743E-1,4.174497128E-1
1.137726380E1,-1.589851975E0,-2.798524201E-1,-3.801869750E-1
1.139672453E1,-1.346575022E0,-1.366580844E0,-1.428278208E0
1.141618526E1,-4.176024497E-1,-2.169562578E0,-5.245801434E-2
1.143564599E1,6.697368622E-1,-8.865175396E-2,1.358639598E0
1.145510672E1,1.464624643E0,1.621616960E0,6.346121430E-1
1.147456744E1,1.436830282E0,1.351920128E0,-1.451567411E-1
1.149402818E1,1.167744398E0,4.930442274E-1,-5.058723688E-1
1.151348890E1,1.096273184E0,-3.264308572E-1,-4.658607543E-1
1.153294963E1,1.100396514E0,-4.537961781E-1,-2.665661275E-1
1.155241036E1,1.056414247E0,-2.512944937E-1,-4.192059487E-2
1.157187109E1,9.052252173E-1,1.641699113E-2,2.420551702E-2
1.159133172E1,5.037343502E-1,2.241110206E-1,-1.491273642E-1
1.161079245E1,-3.535379842E-2,1.424078494E-1,-1.976911128E-1
1.163025318E1,-4.223366380E-1,1.911243200E-1,-1.954003721E-1
1.164971390E1,-5.177842379E-1,3.449095190E-1,-2.092975378E-1
1.166917463E1,-4.061487317E-1,4.576140642E-1,-2.092975378E-1
1.168863536E1,-3.502545953E-1,3.630827665E-1,-3.739255965E-1
1.170809609E1,-4.800633490E-1,8.819360286E-2,-5.897135735E-1
1.172755682E1,-9.702823162E-1,-5.180897117E-1,-7.263945937E-1
1.174701755E1,-1.557781577E0,-1.310686707E0,-5.883391500E-1
1.176647828E1,-1.844277143E0,-2.072740555E0,-1.182786897E-1
1.178593901E1,-1.689270139E0,-2.275547743E0,-3.271944523E-1
1.180539974E1,-3.420079052E-1,-1.444771528E0,-6.445387006E-1
1.182486047E1,3.505600393E-1,8.743765950E-1,4.304305911E-1
1.184432120E1,5.124391913E-1,1.836946726E0,6.971494108E-2
1.186378193E1,8.875101805E-1,9.153045416E-1,1.356883347E-1
1.188324265E1,1.093066216E0,1.685223281E-1,4.898371994E-1
1.190270338E1,9.817360640E-1,1.242346242E-1,7.858011723E-1
1.192216411E1,6.459131241E-1,3.328449428E-1,7.560214996E-1
1.194162484E1,3.021489978E-1,8.012255430E-1,4.366919696E-1
1.196108557E1,2.859610617E-1,1.219209790E0,7.414371520E-2
1.198054630E1,3.704131246E-1,1.128190875E0,2.771798894E-2
1.200000703E1,2.577085793E-1,6.987529397E-1,1.355356276E-1
1.201946776E1,1.147662178E-1,3.163515925E-1,1.500436664E-1
1.203892849E1,-1.066722646E-1,-1.094211563E-1,6.207913160E-2
1.205838922E1,-4.368446767E-1,-3.937787116E-1,-1.020907760E-1
1.207784984E1,-5.049561262E-1,-3.052033186E-1,-1.450040340E-1
1.209731057E1,-2.555705607E-1,-1.412624773E-2,-5.276344717E-2
1.211677130E1,-1.393535286E-1,1.645517051E-1,3.993528336E-2
1.213623203E1,-6.434696913E-1,7.948877662E-2,-1.312595755E-1
1.215569276E1,-1.136590242E0,-5.649735332E-1,-2.575558722E-1
1.217515359E1,-5.225184560E-1,-2.781954527E0,-5.361102223E-1
1.219461432E1,-3.386481702E-1,-1.290070057E0,9.047670960E-1
1.221407505E1,-8.422297984E-2,1.324125767E0,5.255727768E-1
1.223353578E1,8.800270557E-1,1.351156592E0,3.589594066E-1
1.225299651E1,1.032437801E0,3.082576394E-1,1.379790753E-1
1.227245724E1,7.665589452E-1,-4.435641766E-1,-1.935677826E-1
1.229191797E1,4.580722153E-1,-4.641808867E-1,-2.260963321E-1
1.231137870E1,3.794233799E-1,-9.384410083E-2,-2.595411837E-1
1.233083942E1,3.917934000E-1,3.374264240E-1,-3.717875779E-1
1.235030005E1,2.868773639E-1,4.912116528E-1,-3.730092943E-1
1.236976078E1,-3.291033953E-2,1.172096804E-1,-3.223075271E-1
1.238922151E1,-4.009563625E-1,-3.059668839E-1,-1.553887278E-1
1.240868224E1,-5.924624801E-1,-1.225547493E-1,1.168278884E-2
1.242814297E1,-5.950586796E-1,1.036179364E-1,1.155297980E-1
1.244760370E1,-5.776489973E-1,1.384372264E-1,7.414371520E-2
1.246706442E1,-6.227002740E-1,5.413788930E-2,-1.521816850E-1
1.248652515E1,-6.427060962E-1,-1.207221523E-1,-3.523926139E-1
1.250598588E1,-8.374192715E-1,-5.362629294E-1,-4.481456876E-1
1.252544661E1,-1.403843641E0,-9.980766773E-1,-3.748418987E-1
1.254490734E1,-1.656588912E0,-9.215658903E-1,-1.370627880E-1
1.256436807E1,-1.219973326E0,-4.999164641E-1,1.451567411E-1
1.258382880E1,-2.028834671E-1,7.308233380E-1,3.991237879E-1
1.260328953E1,3.195586503E-1,8.554397821E-1,3.287216127E-1
1.262275026E1,7.448732257E-1,5.403862596E-1,-1.473711245E-2
1.264221109E1,7.442623973E-1,-2.619846463E-1,-1.419496983E-1
1.266167172E1,5.193114281E-1,-5.678751469E-1,8.055779338E-2
1.268113255E1,3.476584256E-1,-4.547124803E-1,2.673296928E-1
1.270059318E1,2.169333547E-1,1.824958436E-2,2.855029404E-1
1.272005390E1,2.259436101E-1,6.547706723E-1,2.422842383E-1
1.273951463E1,4.919752181E-1,9.403499961E-1,3.351356983E-1
1.275897536E1,6.175079346E-1,6.987529397E-1,4.441750646E-1
1.277843609E1,1.741728187E-1,3.693441153E-1,3.250564337E-1
1.279789682E1,-3.065777719E-1,5.978839099E-2,3.810269013E-2
1.281735755E1,-4.718166888E-1,-1.651625633E-1,-8.300124854E-2
1.283681828E1,-3.481165767E-1,-2.180023640E-1,9.644027799E-2
1.285627901E1,-3.260490671E-2,-2.053269297E-1,5.107592940E-1
1.287573974E1,-6.238456443E-2,-1.844048053E-1,7.436515093E-1
1.289520047E1,-9.484439492E-1,-3.189477623E-1,1.669951528E-1
1.291466120E1,-1.484783173E0,-7.610611320E-1,-9.976185560E-1
1.293412203E1,-6.315578222E-1,-1.173853040E0,-1.042669773E0
1.295358276E1,6.729438901E-1,-6.540070772E-1,8.526908755E-1
1.297304349E1,1.135063171E0,8.711695075E-1,6.868410707E-1
1.299250422E1,1.114293694E0,1.338786483E0,1.229365356E-2
1.301196494E1,9.568433166E-1,6.665298343E-1,-2.800051570E-1
1.303142568E1,8.375719786E-1,-2.338848561E-1,-1.503490955E-1
1.305088640E1,7.647263408E-1,-7.934370041E-1,-9.338594973E-2
1.307034713E1,6.669879556E-1,-7.326559424E-1,-2.054796368E-1
1.308980786E1,3.728565872E-1,-4.886154532E-1,-2.905425727E-1
1.310926859E1,6.467530876E-2,-1.715766490E-1,-3.554469347E-1
1.312872932E1,-2.231947184E-1,3.320813775E-1,-3.876700699E-1
1.314819005E1,-4.915170670E-1,4.928915203E-1,-2.147953212E-1
1.316765078E1,-6.292670965E-1,6.769145131E-1,-7.658717036E-2
1.318711151E1,-7.121919990E-1,7.543416619E-1,3.817904799E-4
1.320657224E1,-7.621301413E-1,5.872701406E-1,1.320995111E-2
1.322603297E1,-8.525381684E-1,2.442695498E-1,-9.262236953E-2
1.324549370E1,-9.461531639E-1,-1.126281917E-1,-2.265544683E-1
1.326495442E1,-1.065577269E0,-4.545597434E-1,-3.523926139E-1
1.328441515E1,-1.246545911E0,-9.731839299E-1,-2.842811942E-1
1.330387588E1,-1.550451159E0,-1.460043192E0,-1.327867359E-1
1.332333661E1,-1.468289852E0,-1.814039350E0,-2.508363426E-1
1.334279734E1,-4.902953506E-1,-8.007673621E-1,-2.170860767E-1
1.336225807E1,6.081922650E-1,1.448436737E0,1.645517051E-1
1.338171880E1,1.311297655E0,1.617340803E0,6.986765563E-2
1.340117953E1,1.755549073E0,6.405680776E-1,3.016908467E-1
1.342064026E1,1.583743334E0,-8.620829135E-2,6.506473422E-1
1.344010109E1,1.048014879E0,-1.344666034E-1,6.773726940E-1
1.345956182E1,4.902953506E-1,1.839466542E-1,4.151589870E-1
1.347902255E1,1.283579618E-1,6.720275879E-1,-5.474875495E-2
1.349848328E1,1.022434905E-1,9.704350829E-1,-3.667479455E-1
1.351794401E1,9.735657275E-2,8.203150630E-1,-3.096320927E-1
1.353740474E1,-1.103374511E-1,5.406916738E-1,4.879282415E-2
1.355686547E1,-2.511417866E-1,2.406043708E-1,3.464366794E-1
1.357632620E1,-1.874591261E-1,-8.743002266E-2,3.960694373E-1
1.359578692E1,-2.034943253E-1,-2.899316847E-1,1.726456583E-1
1.361524765E1,-1.825722158E-1,-2.144898921E-1,-3.688096255E-2
1.363470838E1,-8.345939964E-2,-3.397935256E-2,-6.032289471E-3
1.365416911E1,-1.149189398E-1,-6.467530876E-2,7.597630471E-2
1.367362984E1,-4.731911421E-1,-3.756054938E-1,-7.338013500E-2
1.369309057E1,-1.066646218E0,-1.320613265E0,-4.206567705E-1
1.371255130E1,-7.735838890E-1,-2.202549219E0,-4.533380270E-1
1.373201203E1,3.134499788E-1,-1.295720577E0,4.234056473E-1
1.375147286E1,3.632354736E-1,7.241038084E-1,8.067232966E-1
1.377093359E1,8.064178824E-1,2.156887293E0,1.724929363E-1
1.379039432E1,1.805792689E0,1.332830548E0,-1.205694377E-1
1.380985505E1,1.836946726E0,1.743255407E-1,-9.399681538E-2
1.382931578E1,1.073365808E0,-4.024835229E-1,-1.764635593E-1
1.384877651E1,3.310123384E-1,-3.241401315E-1,-2.783252597E-1
1.386823724E1,7.612902671E-2,-1.031597927E-1,-3.027598560E-1
1.388769797E1,3.612501621E-1,3.203222156E-1,-3.665952384E-1
1.390715870E1,6.269763112E-1,3.910298049E-1,-4.116465151E-1
1.392661942E1,4.111883640E-1,1.793651730E-1,-2.175442129E-1
1.394608015E1,-2.134208828E-1,1.251509190E-1,-2.802342176E-2
1.396554088E1,-6.730966568E-1,2.323576957E-1,3.588830587E-3
1.398500161E1,-6.851612329E-1,1.859319657E-1,-8.017600514E-3
1.400446234E1,-4.947241247E-1,1.366809942E-2,-9.674570709E-2
1.402392318E1,-5.046506524E-1,-2.998582423E-1,-3.076467812E-1
1.404338390E1,-8.313106298E-1,-6.694314480E-1,-5.319868922E-1
1.406284463E1,-1.192178965E0,-1.026787281E0,-5.130500793E-1
1.408230536E1,-1.470733285E0,-1.653687358E0,-8.483384550E-2
1.410176609E1,-1.098716617E0,-1.411937594E0,4.268417507E-2
1.412122682E1,1.178205460E-1,9.876919985E-1,9.445496649E-2
1.414068755E1,1.019762397E0,1.279074430E0,1.115591824E-1
1.416014828E1,1.651243806E0,4.299724400E-1,9.308052063E-2
1.417960901E1,1.575038433E0,-3.624718785E-1,3.435350657E-1
1.419906984E1,1.008308649E0,-3.047451675E-1,5.573377609E-1
1.421853057E1,3.552942276E-1,1.351538301E-2,4.421897531E-1
1.423799130E1,1.672242396E-2,5.527562499E-1,1.666897237E-1
1.425745203E1,7.689260691E-2,1.082223296E0,-8.926261961E-2
1.427691276E1,1.934150606E-1,1.192026258E0,-1.404225379E-1
1.429637349E1,5.093085021E-2,8.450550437E-1,-4.589121789E-2
1.431583422E1,-3.943895698E-1,3.869064748E-1,2.481638081E-2
1.433529495E1,-7.563269734E-1,-9.766200930E-2,5.421424750E-3
1.435475568E1,-8.493311405E-1,-4.169915617E-1,-3.061959706E-2
1.437421640E1,-6.153699160E-1,-4.258491099E-1,2.909243479E-2
1.439367713E1,-2.561814189E-1,-3.478111327E-1,1.764635593E-1
1.441313786E1,-2.635118067E-1,-3.789652288E-1,1.023962051E-1
1.443259870E1,-5.380955338E-1,-7.552579641E-1,-1.129336283E-1
1.445205943E1,-3.827831447E-1,-1.448894858E0,-3.462839723E-1
1.447152015E1,3.879754841E-1,-1.622838616E0,1.183550525E-2
1.449098088E1,1.070769548E0,5.749000907E-1,1.019304276E0
1.451044161E1,1.082528710E0,1.771126032E0,4.599048197E-1
1.452990234E1,1.392542601E0,1.432859659E0,-1.153770834E-1
1.454936318E1,1.333594203E0,4.675406218E-1,-2.771035433E-1
1.456882390E1,8.882737756E-1,-3.270417452E-1,-2.102138400E-1
1.458828463E1,5.729147792E-1,-8.665880561E-1,-7.246383280E-2
1.460774536E1,4.467712343E-1,-9.762382507E-1,-1.063668281E-1
1.462720609E1,2.989419401E-1,-5.350412130E-1,-2.998582423E-1
1.464666682E1,7.628174126E-2,2.053269297E-1,-4.881573021E-1
1.466612755E1,-1.013271958E-1,5.767326951E-1,-4.032471180E-1
1.468558828E1,-2.334267050E-1,5.971966982E-1,-8.407026529E-2
1.470504901E1,-3.366628587E-1,5.028180480E-1,6.940951198E-2
1.472450984E1,-2.589302957E-1,3.180314898E-1,1.718820781E-1
1.474397057E1,-1.966221035E-1,7.383827865E-2,1.147662178E-1
1.476343130E1,-2.599993348E-1,-1.792124510E-1,-1.271362305E-1
1.478289203E1,-6.738601923E-1,-4.756345749E-1,-4.942659736E-1
1.480235276E1,-1.436830282E0,-8.343649507E-1,-7.198277712E-1
1.482181349E1,-1.759825110E0,-1.011057615E0,-5.046506524E-1
1.484127422E1,-1.538386583E0,-1.607261539E0,-8.575014025E-2
1.486073505E1,-8.916335106E-1,-1.824424028E0,-9.338594973E-2
1.488019578E1,2.018144578E-1,7.380009890E-1,-6.024653837E-2
1.489965651E1,8.117629290E-1,1.459890485E0,4.298960790E-2
1.491911724E1,1.332830548E0,9.479857683E-1,3.749946058E-1
1.493857797E1,1.392389894E0,1.616500914E-1,7.045561671E-1
1.495803870E1,7.752637863E-1,8.391755074E-2,7.864120603E-1
1.497749943E1,2.649625950E-2,4.568504989E-1,4.751764536E-1
1.499696026E1,-2.757290900E-1,8.337540627E-1,-6.490438245E-3
1.501642099E1,-2.109774202E-1,9.881501198E-1,-3.316232264E-1
1.503588172E1,-8.345939964E-2,8.868992925E-1,-2.879463732E-1
1.505534244E1,-2.634354308E-2,5.635991096E-1,5.421424750E-3
1.507480318E1,1.034652218E-1,2.138790339E-1,2.305250913E-1
1.509426390E1,1.074358448E-1,-9.476039559E-2,2.745073736E-1
1.511372463E1,-1.673005968E-1,-2.905425727E-1,9.414953738E-2
1.513318536E1,-3.342193961E-1,-2.540434003E-1,-6.528617442E-2
1.515264620E1,-3.126864135E-1,-1.001054645E-1,-2.527453005E-2
1.517210693E1,-3.010799885E-1,-1.088102907E-1,1.201112866E-1
1.519156765E1,-5.616137981E-1,-4.252382517E-1,-2.328922041E-2
1.521102838E1,-9.087377191E-1,-1.065729976E0,-1.723402292E-1
1.523048911E1,-5.274053812E-1,-2.304716349E0,1.822667718E-1
1.524994995E1,4.226420820E-1,-2.274325848E0,2.535852492E-1
1.526941068E1,2.796997130E-1,4.556287527E-1,3.716348708E-1
1.528887140E1,4.528798759E-1,2.369162798E0,1.509599537E-1
1.530833213E1,1.132925034E0,1.768071771E0,-3.703367710E-2
1.532779286E1,1.099022150E0,5.559632778E-1,-1.541669965E-1
1.534725370E1,2.902371287E-1,-1.886045001E-2,-2.871828079E-1
1.536671443E1,-5.001455545E-2,-1.305723470E-2,-2.535852492E-1
1.538617515E1,1.992182732E-1,2.222020552E-2,-1.999818534E-1
1.540563588E1,5.559632778E-1,2.719111741E-1,-1.856265366E-1
1.542509661E1,7.077631950E-1,2.502254844E-1,-1.421024203E-1
1.544455734E1,4.565450549E-1,-8.880446851E-2,7.979421318E-2
1.546401807E1,-2.298378758E-2,-2.986365259E-1,1.969275326E-1
1.548347890E1,-3.653734922E-1,-1.486692131E-1,1.173623949E-1
1.550293963E1,-5.518399477E-1,-2.267835476E-2,-6.024653837E-2
1.552240036E1,-6.862302423E-1,1.030834299E-2,-3.074940443E-1
1.554186109E1,-8.061124086E-1,-6.146826968E-2,-4.119519293E-1
1.556132182E1,-9.359211922E-1,-4.067595899E-1,-4.331794977E-1
1.558078255E1,-1.064813614E0,-8.931606412E-1,-2.289979309E-1
1.560024338E1,-1.537317634E0,-1.375285745E0,8.788817376E-2
1.561970411E1,-1.055803418E0,-1.778151035E0,2.273180634E-1
1.563916484E1,2.878700197E-2,3.413970470E-1,6.490438245E-3
1.565862557E1,8.267291188E-1,1.380936146E0,1.081994250E-1
1.567808630E1,1.448742151E0,9.811251760E-1,-3.436114406E-3
1.569754713E1,1.472718596E0,-6.185005885E-3,1.308014244E-1
1.571700786E1,9.591340423E-1,-4.328740537E-1,2.894735336E-1
1.573646859E1,3.194059134E-1,-3.516290486E-1,2.402989268E-1
1.575592932E1,7.170025259E-2,2.612210512E-1,5.367974192E-2
1.577539005E1,1.107956022E-1,9.728785157E-1,-9.918916970E-2
1.579485078E1,1.941786408E-1,1.332067013E0,-7.780890167E-2
1.581431161E1,2.260963321E-1,9.653954506E-1,6.039925665E-2
1.583377234E1,-3.657552972E-2,2.002872825E-1,1.089630052E-1
1.585323307E1,-3.826304376E-1,-3.780489266E-1,1.870773360E-2
1.587269380E1,-6.074286699E-1,-5.159516931E-1,-6.337722298E-3
1.589215453E1,-6.382773519E-1,-2.754236460E-1,1.007163301E-1
1.591161526E1,-4.994583130E-1,-7.712167688E-3,1.999818534E-1
1.593107609E1,-4.997637570E-1,-7.322741300E-2,8.391755074E-2
1.595053682E1,-6.886736751E-1,-8.256601095E-1,-5.726093650E-1
1.596999755E1,-4.272235632E-1,-2.334343433E0,-2.833648920E-1
1.598945828E1,-5.069414377E-1,-1.006017923E0,4.611265361E-1
1.600891911E1,1.421711445E0,4.875464439E-1,7.335722446E-1
1.602837984E1,1.364290118E0,1.431638002E0,4.609738290E-1
1.604784057E1,6.559923887E-1,1.466915369E0,-1.046869531E-1
1.606730130E1,4.040106833E-1,4.534907341E-1,-2.806160152E-1
1.608676203E1,5.535198450E-1,-2.806160152E-1,-1.938732117E-1
1.610622286E1,7.389172912E-1,-4.577668011E-1,-1.679114550E-1
1.612568359E1,6.456077099E-1,-2.348011434E-1,-2.282343507E-1
1.614514432E1,4.078285992E-1,1.051450968E-1,-3.559050858E-1
1.616460505E1,2.164752036E-1,2.053269297E-1,-4.595993757E-1
1.618406578E1,1.198822167E-2,1.278998107E-1,-2.589302957E-1
1.620352661E1,-2.219729871E-1,2.346484363E-1,-4.665479809E-2
1.622298734E1,-3.969857395E-1,3.207803667E-1,5.765036494E-2
1.624244807E1,-5.454258919E-1,2.433532625E-1,7.108938694E-2
1.626190880E1,-6.196459532E-1,5.322159454E-2,-4.146244749E-2
1.628136953E1,-6.242274642E-1,-1.642462611E-1,-1.866955459E-1
1.630083026E1,-8.517745733E-1,-5.212967396E-1,-4.069122970E-1
1.632029109E1,-1.285641313E0,-1.055039883E0,-5.582540631E-1
1.633975182E1,-1.446298718E0,-1.326569200E0,-4.284452796E-1
1.635921255E1,-8.986584544E-1,-1.720118880E0,-2.413679510E-1
1.637867328E1,1.199585721E-1,-1.285030365E0,7.078395784E-2
1.639813411E1,3.745364547E-1,1.790215611E0,1.532506943E-1
1.641759484E1,5.695550442E-1,2.179947376E0,9.048434347E-2
1.643705557E1,1.116889834E0,1.388266563E0,2.338848561E-1
1.645651630E1,1.259068727E0,5.345830321E-1,4.779253304E-1
1.647597713E1,1.035492182E0,1.958585232E-1,4.165334105E-1
1.649543786E1,8.120683432E-1,3.838521540E-1,1.379790753E-1
1.651489859E1,5.318341255E-1,8.974367380E-1,-1.773798615E-1
1.653435932E1,2.732856274E-1,1.177060127E0,-2.415206581E-1
1.655382005E1,1.819613427E-1,8.975894451E-1,-6.452259421E-2
1.657328088E1,1.288161129E-1,2.172387838E-1,5.031998456E-2
1.659274161E1,-1.080467105E-1,-4.557814896E-1,5.658135191E-2
1.661220234E1,-4.133263826E-1,-7.609084249E-1,9.384410083E-2
1.663166307E1,-6.188823581E-1,-5.953640938E-1,1.308014244E-1
1.665112380E1,-5.283216834E-1,-2.151007652E-1,6.620246917E-2
1.667058463E1,-2.192240953E-1,-7.322741300E-2,-1.010217592E-1
1.669004536E1,-8.475748822E-3,-2.807687223E-1,-1.917351782E-1
1.670950609E1,-4.894553870E-2,-1.047098637E0,1.063668281E-1
1.672896692E1,-1.519526169E-2,-2.465984821E0,1.262199283E-1
1.674842765E1,4.944186807E-1,-2.091982841E0,5.188532472E-1
1.676788838E1,-5.315287113E-1,1.040989995E0,6.543888897E-2
1.678734911E1,2.761872411E-1,2.502789259E0,1.978438348E-1
1.680680994E1,8.139009476E-1,1.737986684E0,2.699258626E-1
1.682627068E1,5.052615404E-1,2.257908881E-1,1.714239269E-1
1.684573140E1,2.367100911E-3,-3.667479455E-1,-7.414371520E-2
1.686519213E1,5.352702737E-2,-3.004691005E-1,-1.912770271E-1
1.688465297E1,4.276817143E-1,2.909243479E-2,-3.279580176E-1
1.690411370E1,6.599630117E-1,2.998582423E-1,-3.885863721E-1
1.692357442E1,5.504655242E-1,1.059086844E-1,-2.039524764E-1
1.694303515E1,7.780890167E-2,-2.639699280E-1,8.834631741E-2
1.696249588E1,-4.537961781E-1,-3.013854027E-1,2.323576957E-1
1.698195672E1,-6.712640524E-1,-3.871355578E-2,1.747836918E-1
1.700141744E1,-6.993638277E-1,1.756999791E-1,-2.664897591E-2
1.702087818E1,-6.526326537E-1,2.320522517E-1,-1.911243200E-1
1.704033890E1,-6.416370869E-1,-2.649625950E-2,-2.728274763E-1
1.705979974E1,-7.644209266E-1,-5.866592526E-1,-3.261254430E-1
1.707926047E1,-9.408081174E-1,-9.072105289E-1,-1.921933293E-1
1.709872120E1,-1.175380230E0,-1.413006544E0,-5.093085021E-2
1.711818203E1,-7.633519173E-1,-1.540066481E0,-2.025780380E-1
1.713764276E1,-1.043815166E-1,3.639990389E-1,9.544761851E-3
1.715710349E1,3.861429095E-1,1.060842991E0,2.924515121E-2
1.717656422E1,8.453605175E-1,5.342776179E-1,2.191477455E-2
1.719602505E1,9.846376777E-1,-2.045633495E-1,2.786307037E-1
1.721548578E1,7.178424597E-1,-3.624718785E-1,4.826595485E-1
1.723494651E1,4.768563211E-1,-1.030070707E-1,3.623191714E-1
1.725440724E1,4.377609789E-1,5.588648915E-1,1.137735695E-2
1.727386807E1,4.751764536E-1,1.154305339E0,-2.486983240E-1
1.729332880E1,5.257254839E-1,1.074740171E0,-1.352301836E-1
1.731278953E1,2.694677114E-1,3.844630122E-1,1.217911690E-1
1.733225026E1,-2.209039778E-1,-2.743546367E-1,1.598175019E-1
1.735171109E1,-5.744419694E-1,-5.472584963E-1,6.391172856E-2
1.737117182E1,-7.451786995E-1,-5.341249108E-1,2.672533505E-3
1.739063255E1,-7.398335934E-1,-2.425896823E-1,5.490147322E-2
1.741009328E1,-7.057778835E-1,1.550069358E-2,1.984546930E-1
1.742955411E1,-3.812559843E-1,-6.117047071E-1,3.260490671E-2
1.744901484E1,-8.791107535E-1,-1.693546295E0,3.580431044E-1
1.746847557E1,-4.925860763E-1,-6.784417033E-1,3.596466407E-2
1.748793640E1,1.264413714E0,-1.184314117E-1,3.513236046E-1
1.750739713E1,8.248965144E-1,9.711986184E-1,3.415497839E-1
1.752685786E1,-4.199695308E-3,1.453170896E0,-8.605557680E-2
1.754631859E1,2.273180634E-1,8.148172498E-1,-1.537088454E-1
1.756577943E1,1.005865216E0,-1.601229310E-1,-4.024071619E-2
1.758524015E1,1.401858330E0,-4.634172916E-1,-1.013271958E-1
1.760470088E1,9.910517335E-1,-1.382845193E-1,-3.365101218E-1
1.762416172E1,2.447277009E-1,1.624136716E-1,-4.947241247E-1
1.764362245E1,-7.933606207E-2,3.291797638E-1,-4.473820925E-1
1.766308318E1,-8.284853399E-2,2.870301008E-1,-1.540142894E-1
1.768254390E1,-2.725220621E-1,3.032180071E-1,1.419496983E-1
1.770200474E1,-5.400808454E-1,4.107302129E-1,1.914297491E-1
1.772146547E1,-7.189114690E-1,3.572795391E-1,1.062141135E-1
1.774092620E1,-7.221185565E-1,1.737146676E-1,-4.375318810E-2
1.776038693E1,-7.387645841E-1,-1.143080741E-1,-2.117410004E-1
1.777984776E1,-1.141477227E0,-6.718748808E-1,-3.962221742E-1
1.779930849E1,-1.639637470E0,-1.400789261E0,-5.579485893E-1
1.781876922E1,-1.650480270E0,-1.802127481E0,-5.399280787E-1
1.783823005E1,-8.554397821E-1,-2.381380081E0,-8.147408813E-2
1.785769078E1,-1.040760875E-1,-1.692859083E-1,9.017891437E-2
1.787715151E1,2.732856274E-1,1.729587317E0,1.237764731E-1
1.789661234E1,1.313282967E0,1.603749156E0,-3.123046272E-2
1.791607307E1,1.759977818E0,4.600575268E-1,2.867246568E-1
1.793553380E1,1.472718596E0,7.047852129E-2,5.605447888E-1
1.795499463E1,1.020678639E0,7.948877662E-2,5.338194370E-1
1.797445536E1,7.039452791E-1,3.713294268E-1,1.961639524E-1
1.799391609E1,4.541015923E-1,8.752928972E-1,-1.552360058E-1
1.801337693E1,1.752418280E-1,1.098563910E0,-2.216675580E-1
1.803283765E1,-1.349247545E-1,8.623120189E-1,-6.620246917E-2
1.805229838E1,-2.488510460E-1,4.009563625E-1,1.611155830E-2
1.807175911E1,-1.130863428E-1,-6.849320978E-2,2.451094985E-2
1.809121995E1,-3.894262947E-3,-3.146717250E-1,1.517235339E-1
1.811068068E1,-1.260672212E-1,-2.728274763E-1,2.925278842E-1
1.813014140E1,-3.073413372E-1,-2.257908881E-1,2.621373534E-1
1.814960224E1,-3.103956580E-1,-3.646099269E-1,4.283689335E-2
1.816906297E1,-5.423715711E-1,-8.259655237E-1,-2.735910714E-1
1.818852370E1,-6.828704476E-1,-1.772042394E0,-5.216021538E-1
1.820798453E1,-4.329504073E-2,-2.618548155E0,-2.045633495E-1
1.822744526E1,1.234710440E-1,-4.951822758E-1,8.467349410E-1
1.824690609E1,2.688568532E-1,2.025398493E0,3.210858107E-1
1.826636682E1,9.968549609E-1,2.063272238E0,2.512944937E-1
1.828582755E1,1.052596331E0,7.592285872E-1,1.382081583E-2
1.830528838E1,4.857138693E-1,-4.940368980E-2,-1.805869043E-1
1.832474911E1,2.894735336E-1,-2.022725940E-1,-2.280816436E-1
1.834420984E1,4.333322048E-1,-5.016727000E-2,-1.880699992E-1
1.836367068E1,6.179660559E-1,2.683987021E-1,-3.036761582E-1
1.838313140E1,6.509527564E-1,3.574322462E-1,-2.847393453E-1
1.840259213E1,4.289034307E-1,7.903063297E-2,-6.314814836E-2
1.842205286E1,-4.451677203E-2,-9.934188426E-2,1.083521396E-1
1.844151370E1,-4.058432877E-1,-1.457676142E-1,9.628756344E-2
1.846097442E1,-6.266708970E-1,-1.266780794E-1,-9.292780608E-2
1.848043515E1,-7.369319797E-1,-1.840993762E-1,-3.099375069E-1
1.849989599E1,-8.736129999E-1,-3.525453210E-1,-4.040106833E-1
1.851935672E1,-1.042975307E0,-5.797870159E-1,-3.388008773E-1
1.853881744E1,-1.367497206E0,-7.865647674E-1,-2.228892893E-1
1.855827828E1,-9.730312228E-1,-1.382157922E0,-7.429642975E-2
1.857773901E1,6.872228696E-4,-3.884336352E-1,5.035816431E-1
1.859719984E1,2.903898358E-1,1.032285094E0,2.824485898E-1
1.861666057E1,4.160752594E-1,1.265024543E0,-2.289979309E-1
1.863612130E1,6.165916324E-1,4.217257798E-1,-3.977493346E-1
1.865558213E1,8.079450130E-1,-2.054032870E-2,-1.500436664E-1
1.867504286E1,8.972840309E-1,-1.043815166E-1,2.204458266E-1
1.869450359E1,8.664353490E-1,2.036470473E-1,4.107302129E-1
1.871396442E1,6.077340841E-1,5.710822344E-1,4.038579762E-1
1.873342515E1,2.157116234E-1,7.221185565E-1,3.439932168E-1
1.875288588E1,-8.300124854E-2,4.631118476E-1,2.485456020E-1
1.877234672E1,-2.486983240E-1,3.046688065E-2,1.000291109E-2
1.879180744E1,-2.422842383E-1,-2.847393453E-1,-1.077412739E-1
1.881126818E1,-2.506836355E-1,-3.690386713E-1,-3.459021822E-2
1.883072901E1,-2.853502035E-1,-2.880991101E-1,9.873101860E-2
1.885018974E1,-3.974438906E-1,-2.236528695E-1,1.526398361E-1
1.886965057E1,-7.199804783E-1,-2.963457704E-1,-7.444914430E-2
1.888911130E1,-1.944840699E-1,-1.619020700E0,-4.489092529E-1
1.890857203E1,4.650207981E-2,-9.872338176E-1,2.146426141E-1
1.892803286E1,9.802088737E-1,9.111811519E-1,5.880337358E-1
1.894749359E1,8.572723866E-1,1.628489137E0,3.349829614E-1
1.896695442E1,2.337321341E-1,1.251891017E0,-1.382081583E-2
1.898641515E1,1.165988147E-1,2.845866382E-1,-1.972329617E-1
1.900587588E1,5.112174749E-1,-5.240456462E-1,-1.492800862E-1
1.902533672E1,7.989347577E-1,-7.068468928E-1,-1.025489271E-1
1.904479744E1,5.956695080E-1,-2.929860055E-1,-2.196822464E-1
1.906425818E1,9.048434347E-2,3.882809281E-1,-3.812559843E-1
1.908371901E1,-2.416733801E-1,4.690677822E-1,-3.352884054E-1
1.910317974E1,-1.590539217E-1,1.372154951E-1,-6.925679743E-2
1.912264047E1,-7.765618712E-2,1.748600416E-2,1.972329617E-1
1.914210130E1,-3.209330738E-1,8.330668509E-2,2.265544683E-1
1.916156203E1,-6.856193542E-1,9.827287495E-2,6.146826968E-2
1.918102286E1,-9.009491801E-1,-5.551233515E-2,-2.253327519E-1
1.920048359E1,-9.543998837E-1,-3.352884054E-1,-5.002219081E-1
1.921994432E1,-9.687551856E-1,-7.137191296E-1,-5.721512437E-1
1.923940515E1,-8.846085668E-1,-1.076572776E0,-4.276817143E-1
1.925886588E1,-9.959386587E-1,-1.144226074E0,-2.459494323E-1
1.927832672E1,-7.163153291E-1,-1.683467031E0,-1.094211563E-1
1.929778744E1,-1.217911690E-1,-3.525453210E-1,6.482802331E-2
1.931724828E1,3.650680780E-1,1.436982989E0,1.897498667E-1
1.933670901E1,9.114866257E-1,1.594280720E0,1.081994250E-1
1.935616974E1,1.059926748E0,8.661298752E-1,3.694968224E-1
1.937563057E1,7.818305492E-1,2.685514390E-1,7.033344507E-1
1.939509130E1,5.231293440E-1,1.599702090E-1,6.130791903E-1
1.941455203E1,3.919461071E-1,8.003092408E-1,2.001345754E-1
1.943401286E1,2.334267050E-1,1.652160168E0,-2.445749789E-1
1.945347359E1,1.879172772E-1,1.708817840E0,-2.476293147E-1
1.947293443E1,5.367974192E-2,8.606321216E-1,-1.538615674E-1
1.949239515E1,-9.766200930E-2,-2.108247131E-1,-7.796161622E-2
1.951185599E1,-1.810450554E-1,-9.001855850E-1,5.978839099E-2
1.953131672E1,-3.446041048E-1,-1.043738842E0,2.483928949E-1
1.955077744E1,-4.145480990E-1,-7.575486898E-1,3.617083132E-1
1.957023828E1,-2.839757502E-1,-3.739255965E-1,2.694677114E-1
1.958969901E1,-1.237764731E-1,-6.207913160E-2,2.405280061E-2
1.960915984E1,-7.017309219E-2,-2.906952798E-1,-1.085048541E-1
1.962862057E1,-1.651625633E-1,-1.493488073E0,-3.279580176E-1
1.964808140E1,-7.780890167E-2,-2.125427723E0,-3.739255965E-1
1.966754213E1,6.849320978E-2,-2.734383345E-1,3.113119602E-1
1.968700286E1,2.861137986E-1,1.276478291E0,3.123809695E-1
1.970646370E1,7.357102633E-1,1.428889036E0,6.192641705E-2
1.972592443E1,9.658535719E-1,5.739838481E-1,-1.385899484E-1
1.974538526E1,1.008003235E0,4.390590638E-2,-8.071050793E-2
1.976484599E1,9.719622135E-1,5.505418777E-2,5.115992390E-3
1.978430682E1,7.790816426E-1,2.325104028E-1,-6.314814836E-2
1.980376755E1,4.342485070E-1,2.769508064E-1,-2.060905099E-1
1.982322828E1,5.826122686E-2,7.887791097E-2,-2.346484363E-1
1.984268911E1,-1.249982044E-1,-2.201403975E-1,-2.542724647E-2
1.986214984E1,-1.914297491E-1,-2.422842383E-1,1.607337892E-1
1.988161068E1,-3.971384764E-1,-7.002037764E-2,1.584430486E-1
1.990107140E1,-6.750819683E-1,3.779725730E-2,5.421424750E-3
1.992053224E1,-8.655190468E-1,-6.039925665E-2,-2.280816436E-1
1.993999297E1,-9.408081174E-1,-3.902662396E-1,-4.814378023E-1
1.995945370E1,-1.079016328E0,-7.282271981E-1,-7.317396402E-1
1.997891453E1,-8.000037670E-1,-9.864702821E-1,-3.380373120E-1
1.999837526E1,-2.499200553E-1,-1.996993303E0,6.506473422E-1
2.001783609E1,-1.598175019E-1,-1.445229769E0,1.816559136E-1
2.003729682E1,-1.430187225E-1,1.193858862E0,-2.112828493E-1
2.005675765E1,9.827287495E-2,1.625587583E0,-4.457022250E-1
2.007621838E1,6.860775352E-1,1.002047300E0,-3.169624507E-1
2.009567922E1,1.195233345E0,3.125337064E-1,6.101011857E-2
2.011513995E1,1.390709996E0,9.078978002E-2,5.077049732E-1
2.013460078E1,1.137201190E0,3.010799885E-1,6.144536138E-1
2.015406151E1,5.029708147E-1,7.439569235E-1,3.052033186E-1
2.017352234E1,-2.313650399E-2,8.850666881E-1,1.183550525E-2
2.019298307E1,-1.472947747E-1,5.970439911E-1,1.028543562E-1
2.021244380E1,-1.543197185E-1,8.773545176E-2,1.839466542E-1
2.023190463E1,-2.231947184E-1,-2.664133906E-1,1.688277572E-1
2.025136536E1,-3.702604175E-1,-3.786598146E-1,1.595120728E-1
2.027082620E1,-5.206858516E-1,-1.688277572E-1,2.456440032E-1
2.029028692E1,-5.011382103E-1,9.537126124E-2,3.873646259E-1
2.030974776E1,-6.132318974E-1,6.284271181E-2,3.216966689E-1
2.032920849E1,-8.751401305E-1,-2.861137986E-1,-2.023489587E-2
2.034866932E1,-8.108466268E-1,-1.027092814E0,-7.112756968E-1
2.036813005E1,1.954003721E-1,-1.804265499E0,-7.057778835E-1
2.038759088E1,5.252673626E-1,-6.585885882E-1,6.683624387E-1
2.040705161E1,6.622537971E-1,1.368718863E0,4.968621433E-1
2.042651244E1,9.617302418E-1,1.896506071E0,7.383827865E-2
2.044597318E1,9.525672793E-1,9.992983937E-1,-2.086866796E-1
2.046543401E1,4.400517046E-1,1.602756530E-1,-1.957058012E-1
2.048489474E1,1.932623386E-1,-1.741728187E-1,-1.254563481E-1
2.050435557E1,3.220020831E-1,-1.692859083E-1,-2.302196622E-1
2.052381630E1,4.033998251E-1,1.019380614E-1,-5.310705900E-1
2.054327713E1,2.995528281E-1,2.855029404E-1,-6.181188226E-1
2.056273786E1,2.167806327E-1,1.659261435E-1,-1.482110620E-1
2.058219870E1,2.903898358E-1,6.101011857E-2,3.145190179E-1
2.060165942E1,2.050214857E-1,2.061668551E-3,3.997346461E-1
2.062112026E1,-2.074649483E-1,-1.547778696E-1,2.803105712E-1
2.064058099E1,-8.302416205E-1,-4.423424602E-1,-2.664897591E-2
2.066004182E1,-1.216613531E0,-8.592576981E-1,-3.021489978E-1
2.067950255E1,-1.403996348E0,-1.420031548E0,-4.960985482E-1
2.069896338E1,-1.332983255E0,-1.763643026E0,-5.524508357E-1
2.071842411E1,-8.401681185E-1,-1.650174856E0,-1.198058575E-1
2.073788494E1,1.950949430E-1,-1.151403785E0,9.762382507E-1
2.075734568E1,6.498837471E-1,1.375743866E0,2.720639110E-1
2.077680651E1,5.803979039E-1,2.118402719E0,1.045342386E-1
2.079626724E1,4.568504989E-1,1.528307319E0,-1.340084672E-1
2.081572807E1,4.382191300E-1,4.463130832E-1,-1.486692131E-1
2.083518880E1,4.629591405E-1,-8.147408813E-2,2.039524764E-1
2.085464963E1,6.000983119E-1,-5.642863363E-2,2.934441566E-1
2.087411036E1,6.779835224E-1,4.455494881E-1,1.451567411E-1
2.089357120E1,5.014436245E-1,1.050305605E0,-2.359465137E-2
2.091303193E1,3.157407343E-1,1.206228852E0,-2.496909723E-2
2.093249276E1,-2.061668551E-3,8.415426016E-1,-3.993528336E-2
2.095195359E1,-3.705658615E-1,4.160752594E-1,-1.364519149E-1
2.097141432E1,-4.321104586E-1,6.131555140E-2,-7.276926935E-2
2.099087515E1,-2.771035433E-1,-1.320231557E-1,2.063959390E-1
2.101033588E1,-2.102138400E-1,-7.506000996E-2,4.247801006E-1
2.102979672E1,-1.727983803E-1,4.046979360E-3,4.339430630E-1
2.104925745E1,-1.873064190E-1,-2.572504282E-1,1.201112866E-1
2.106871828E1,-2.867246568E-1,-8.520799875E-1,-3.058141768E-1
2.108817901E1,-2.589302957E-1,-2.082819939E0,-5.361102223E-1
2.110763984E1,1.601229310E-1,-2.340299368E0,-2.937496006E-1
2.112710068E1,5.390118361E-1,-2.344957143E-1,1.756999791E-1
2.114656140E1,4.285979867E-1,7.607557178E-1,4.954876900E-1
2.116602224E1,-2.771798894E-2,1.337564826E0,-6.207913160E-2
2.118548297E1,8.250492215E-1,7.822887301E-1,-1.387426704E-1
2.120494380E1,9.049198031E-1,-1.938732117E-1,2.176205814E-2
2.122440453E1,2.780198455E-1,-4.751764536E-1,8.880446851E-2
2.124386536E1,-2.298378758E-2,-4.711294547E-2,2.939786762E-2
2.126332620E1,-4.894553870E-2,3.898080885E-1,-1.984546930E-1
2.128278692E1,-4.741837829E-2,3.426187932E-1,-3.300960660E-1
2.130224776E1,-3.489565104E-2,1.172096804E-1,-2.036470473E-1
2.132170849E1,-9.995274991E-2,2.695440874E-2,4.405862093E-2
2.134116932E1,-2.661079764E-1,1.095738709E-1,2.118937224E-1
2.136063005E1,-3.991237879E-1,1.457676142E-1,2.161697745E-1
2.138009088E1,-4.931969643E-1,-5.444332212E-2,3.703367710E-2
2.139955161E1,-5.900190473E-1,-3.223075271E-1,-1.993709952E-1
2.141901244E1,-7.633519173E-1,-7.378482819E-1,-3.160461783E-1
2.143847328E1,-1.102992773E0,-1.101465583E0,-2.726747692E-1
2.145793401E1,-1.728670955E0,-1.412090302E0,-2.482401729E-1
2.147739484E1,-1.170798659E0,-1.487226605E0,7.276926935E-2
2.149685557E1,-3.375791609E-1,5.564214587E-1,5.153408051E-1
2.151631640E1,2.766453922E-1,1.564806461E0,1.109483168E-1
2.153577724E1,7.160098553E-1,9.921207428E-1,-2.033416182E-1
2.155523797E1,5.872701406E-1,-9.392046370E-3,-1.631772518E-1
2.157469880E1,2.358701676E-1,-1.983019859E-1,1.427896414E-2
2.159415953E1,-2.252563834E-2,9.414953738E-2,1.353829056E-1
2.161362036E1,8.116865903E-2,6.301833987E-1,1.369100660E-1
2.163308109E1,4.223366380E-1,8.117629290E-1,6.742420048E-2
2.165254192E1,6.251437664E-1,5.654317141E-1,3.397935256E-2
2.167200276E1,3.160461783E-1,-7.551816106E-2,1.351538301E-2
2.169146349E1,-1.396589577E-1,-6.405680776E-1,-1.017853469E-1
2.171092432E1,-2.121991515E-1,-9.166789651E-1,-5.337430909E-2
2.173038505E1,-2.848157100E-2,-8.239802122E-1,1.724929363E-1
2.174984588E1,1.141553521E-1,-4.227947891E-1,3.995819092E-1
2.176930661E1,-2.206749097E-2,6.834049523E-2,4.644863009E-1
2.178876744E1,-9.075160027E-1,3.675115108E-1,-9.369138628E-2
2.180822828E1,-9.927316308E-1,-1.917351782E-1,-1.029994369E0
2.182768901E1,-1.665370166E-1,-1.802738309E0,1.923460513E-1
2.184714984E1,3.323867917E-1,1.821140647E-1,7.977130413E-1
2.186661068E1,6.448441148E-1,1.660712242E0,3.546833694E-1
2.188607140E1,5.684860349E-1,1.507690668E0,-1.164461002E-1
2.190553224E1,8.773545176E-2,5.745946765E-1,-2.320522517E-1
2.192499297E1,-5.398517475E-2,-5.154171586E-2,-1.709657758E-1
2.194445380E1,1.216384470E-1,-2.716057599E-1,-1.660788655E-1
2.196391463E1,1.407279670E-1,-2.932914495E-1,-1.805869043E-1
2.198337536E1,-1.656970754E-2,-2.402989268E-1,-2.422842383E-1
2.200283620E1,-1.366046369E-1,-1.987601221E-1,-1.769217104E-1
2.202229703E1,-2.286925018E-1,-2.890154123E-1,-1.962403022E-2
2.204175776E1,-3.048978746E-1,-1.359937787E-1,1.167515293E-1
2.206121859E1,-5.138136148E-1,2.985601686E-2,1.654679924E-1
2.208067932E1,-7.602975965E-1,3.596466407E-2,7.826705277E-2
2.210014015E1,-8.540652990E-1,-6.956222653E-2,-1.054505333E-1
2.211960099E1,-7.392227650E-1,-2.948186100E-1,-2.169333547E-1
2.213906172E1,-8.578832150E-1,-4.902953506E-1,-2.864192128E-1
2.215852255E1,-1.345506072E0,-6.588940024E-1,-2.725220621E-1
2.217798328E1,-1.458668709E0,-1.300760150E0,-3.504836559E-2
2.219744411E1,-7.418189049E-1,-9.730312228E-1,3.056614697E-1
2.221690495E1,3.537670672E-1,2.352592945E-1,2.515999377E-1
2.223636578E1,9.823469520E-1,7.124974132E-1,-8.468113095E-2
2.225582651E1,1.305952549E0,5.642863363E-2,-9.567669779E-2
2.227528734E1,1.100701928E0,-3.470475674E-1,1.413388401E-1
2.229474807E1,6.185769439E-1,-8.727730811E-2,3.045924604E-1
2.231420890E1,2.610683441E-1,3.552942276E-1,2.554178238E-1
2.233366974E1,2.253327519E-1,7.256309986E-1,6.039925665E-2
2.235313047E1,3.849211633E-1,9.046143889E-1,-1.146135032E-1
2.237259130E1,3.212385178E-1,5.745946765E-1,-4.466948658E-2
2.239205213E1,-3.962985426E-2,8.666644245E-2,1.844048053E-1
2.241151286E1,-3.798815310E-1,-9.246965498E-2,3.476584256E-1
2.243097370E1,-4.852557182E-1,-6.849320978E-2,3.449095190E-1
2.245043442E1,-4.067595899E-1,-1.809686981E-2,2.656498253E-1
2.246989526E1,-2.201403975E-1,5.322159454E-2,1.306487024E-1
2.248935609E1,4.375318810E-2,1.145371469E-3,4.344775900E-2
2.250881682E1,2.283107117E-2,-2.671769857E-1,-2.802342176E-2
2.252827765E1,-5.362629294E-1,-5.942950845E-1,-2.282343507E-1
2.254773849E1,-8.261182308E-1,-1.044502378E0,-4.154644012E-1
2.256719932E1,-1.168278884E-2,-1.252959967E0,-4.496728480E-1
2.258666005E1,7.526617646E-1,-4.316523373E-1,5.156462193E-1
2.260612088E1,7.387645841E-1,1.277241945E0,4.941132367E-1
2.262558172E1,6.216312647E-1,1.668806195E0,2.588539571E-2
2.264504244E1,1.035339475E0,5.157989264E-1,-5.306887627E-2
2.266450328E1,9.823469520E-1,-3.094793558E-1,-2.939786762E-2
2.268396411E1,6.026944518E-1,-3.714821339E-1,-8.834631741E-2
2.270342484E1,4.015672207E-1,7.964149863E-2,-1.640935540E-1
2.272288568E1,3.849211633E-1,2.937496006E-1,-2.289979309E-1
2.274234651E1,3.710239828E-1,2.051742077E-1,-2.884045243E-1
2.276180724E1,3.988183439E-1,1.056032479E-1,-1.799760312E-1
2.278126807E1,2.880991101E-1,1.013271958E-1,-2.298378758E-2
2.280072890E1,-4.573849961E-2,3.786598146E-1,9.277509153E-2
2.282018963E1,-3.407861888E-1,3.901135325E-1,3.306305781E-2
2.283965047E1,-4.715112448E-1,7.567087561E-2,-1.534034163E-1
2.285911130E1,-4.789943397E-1,-2.515999377E-1,-2.402989268E-1
2.287857203E1,-5.028180480E-1,-7.190641761E-1,-2.080758214E-1
2.289803286E1,-8.016836643E-1,-9.757801294E-1,-1.576794684E-1
2.291749370E1,-1.434997678E0,-1.059163213E0,1.518762559E-1
2.293695453E1,-1.325958371E0,-1.514562845E0,3.484219909E-1
2.295641526E1,-4.534907341E-1,7.200568914E-2,2.911534309E-1
2.297587609E1,3.696495593E-1,8.962149620E-1,7.047852129E-2
2.299533692E1,1.021289587E0,1.009835839E0,-2.633590698E-1
2.301479765E1,1.103603601E0,5.383246019E-2,-1.304959953E-1
2.303425849E1,8.291725516E-1,-2.276234925E-1,1.062141135E-1
2.305371932E1,5.167152286E-1,-3.535379842E-2,1.645517051E-1
2.307318015E1,2.546542585E-1,4.979311526E-1,1.585957706E-1
2.309264088E1,2.822958827E-1,8.957568407E-1,1.214093715E-2
2.311210172E1,6.179660559E-1,8.160389662E-1,-1.336266659E-2
2.313156255E1,6.501892209E-1,3.597230017E-1,6.589704007E-2
2.315102328E1,2.448804229E-1,-1.214857325E-1,-3.993528336E-2
2.317048411E1,-1.275180187E-2,-3.091739416E-1,-1.182786897E-1
2.318994494E1,-2.390008420E-2,-3.265835941E-1,-1.075885594E-1
2.320940568E1,2.664897591E-2,-2.082285285E-1,-1.336266659E-2
2.322886651E1,8.162680268E-2,6.185005885E-3,1.795178801E-1
2.324832734E1,-5.841394514E-2,1.063668281E-1,2.138790339E-1
2.326778818E1,-6.955459118E-1,-2.352592945E-1,-2.216675580E-1
2.328724890E1,-6.054433584E-1,-1.395291567E0,-1.042058945E0
2.330670974E1,-2.282343507E-1,-1.632307053E0,-2.506836355E-1
2.332617057E1,2.633590698E-1,6.529380679E-1,3.244455457E-1
2.334563140E1,3.180314898E-1,1.752647400E0,2.135736048E-1
2.336509224E1,2.195295244E-1,1.196760416E0,6.177370250E-2
2.338455297E1,3.319286406E-1,3.588830587E-3,7.200568914E-2
2.340401380E1,4.330267608E-1,-5.623773932E-1,1.320995111E-2
2.342347463E1,4.020253718E-1,-5.478693247E-1,-6.696604937E-2
2.344293536E1,3.345248103E-1,-3.635408878E-1,-1.782961637E-1
2.346239620E1,1.314122826E-1,-1.124754772E-1,-3.015381396E-1
2.348185703E1,-5.688678101E-2,-1.382081583E-2,-3.044397235E-1
2.350131786E1,-2.176969349E-1,-4.283689335E-2,-1.298851222E-1
2.352077859E1,-5.006800294E-1,1.527925581E-1,5.016727000E-2
2.354023943E1,-8.303943276E-1,2.850447893E-1,1.647044122E-1
2.355970026E1,-1.082223296E0,2.783252597E-1,1.941786408E-1
2.357916109E1,-1.201800108E0,1.039233729E-1,3.031416424E-2
2.359862182E1,-1.246087790E0,-3.149771392E-1,-2.810741663E-1
2.361808265E1,-1.198898435E0,-8.360447884E-1,-5.287798047E-1
2.363754349E1,-1.366275430E0,-1.025718331E0,-6.194932461E-1
2.365700432E1,-1.383990526E0,-1.076267362E0,-2.433532625E-1
2.367646515E1,-7.036398649E-1,9.537126124E-2,2.296088040E-1
2.369592588E1,4.893790483E-1,9.154572487E-1,1.818086356E-1
2.371538672E1,1.604359984E0,1.186223030E0,1.538615674E-1
2.373484755E1,1.919260740E0,2.399934977E-1,4.392881393E-1
2.375430838E1,1.013042927E0,-2.190713882E-1,7.015018463E-1
2.377376911E1,-8.193223923E-2,-8.223766834E-2,6.602684855E-1
2.379322994E1,-5.614610910E-1,2.056323588E-1,3.801869750E-1
2.381269078E1,-3.369682729E-1,5.964331031E-1,1.603520010E-3
2.383215161E1,8.101594448E-2,7.580068111E-1,-1.758527011E-1
2.385161234E1,8.834631741E-2,4.696786702E-1,-2.405280061E-2
2.387107318E1,-2.264017612E-1,1.005636156E-1,2.039524764E-1
2.389053401E1,-4.457022250E-1,-4.528035223E-2,3.265835941E-1
2.390999484E1,-5.098429918E-1,-7.292198390E-2,3.475056887E-1
2.392945557E1,-4.153116941E-1,-4.222602770E-2,3.782016635E-1
2.394891640E1,-2.407570779E-1,-4.955640435E-2,4.063014388E-1
2.396837724E1,-4.177551568E-1,-2.115882933E-1,2.282343507E-1
2.398783807E1,-1.041600823E0,-6.340012550E-1,-3.624718785E-1
2.400729890E1,-8.244383931E-1,-9.956332445E-1,-7.561742663E-1
2.402675974E1,2.303723842E-1,-9.424880147E-1,5.298488140E-1
2.404622047E1,1.005712509E0,3.130682046E-3,8.537598848E-1
2.406568130E1,1.123456717E0,1.041142702E0,2.731329203E-1
2.408514213E1,6.927970052E-1,1.332830548E0,-1.121700481E-1
2.410460297E1,5.713876486E-1,5.341249108E-1,-2.810741663E-1
2.412406380E1,5.862011313E-1,-1.883754283E-1,-2.871828079E-1
2.414352463E1,6.181188226E-1,-2.007454336E-1,-2.635118067E-1
2.416298536E1,6.529380679E-1,-7.002037764E-2,-2.241110206E-1
2.418244620E1,5.463421941E-1,-1.712712198E-1,-2.629009187E-1
2.420190703E1,2.848920524E-1,-1.014799103E-1,-3.285689056E-1
2.422136786E1,-8.452841640E-2,-8.009964228E-2,-3.056614697E-1
2.424082859E1,-4.307360351E-1,1.314122826E-1,-1.943313628E-1
2.426028942E1,-5.764272809E-1,4.458549321E-1,-8.926261961E-2
2.427975026E1,-6.779835224E-1,5.048033595E-1,-8.651372790E-2
2.429921109E1,-8.064178824E-1,3.047451675E-1,-2.173915058E-1
2.431867192E1,-9.672279954E-1,-1.989128441E-1,-4.165334105E-1
2.433813276E1,-1.133077860E0,-8.766673207E-1,-6.010146141E-1
2.435759349E1,-1.301065564E0,-1.538691998E0,-4.447859228E-1
2.437705432E1,-1.113072038E0,-2.317697287E0,-1.014799103E-1
2.439651515E1,-5.829941034E-1,-7.332668304E-1,-8.437569439E-2
2.441597599E1,-4.925097153E-2,1.131550670E0,-1.527925581E-1
2.443543682E1,5.581013560E-1,1.317406297E0,-1.230128929E-1
2.445489765E1,1.210810304E0,1.844048053E-1,3.703367710E-2
2.447435849E1,1.290070057E0,-5.397753716E-1,3.946950138E-1
2.449381922E1,7.922152877E-1,-4.366919696E-1,5.232820511E-1
2.451328005E1,4.621955752E-1,6.666062027E-2,4.032471180E-1
2.453274088E1,5.799397230E-1,6.207149625E-1,1.575267613E-1
2.455220172E1,7.825941443E-1,9.921207428E-1,3.749182448E-2
2.457166255E1,5.756636858E-1,9.728785157E-1,8.498656005E-2
2.459112328E1,4.741837829E-2,6.758455038E-1,1.137735695E-2
2.461058411E1,-2.302196622E-1,3.142135739E-1,-9.598212689E-2
2.463004494E1,-1.882227063E-1,-1.992946304E-2,-5.345066893E-4
2.464950578E1,-1.900553107E-1,-2.004400045E-1,1.986074150E-1
2.466896661E1,-3.125337064E-1,-2.998582423E-1,3.510181606E-1
2.468842745E1,-5.124391913E-1,-5.142717957E-1,3.074940443E-1
2.470788828E1,-3.586539924E-1,-1.304730773E0,-1.709657758E-1
2.472734911E1,8.668934703E-1,-2.663599491E0,-1.414915472E-1
2.474680984E1,4.357756674E-1,-6.430115104E-1,7.291435003E-1
2.476627068E1,6.781362891E-1,1.859395981E0,2.874882221E-1
2.478573151E1,9.469167590E-1,2.306701660E0,2.401462197E-1
2.480519234E1,1.339855552E0,1.257846951E0,3.270417452E-1
2.482465318E1,1.529834509E0,1.698967665E-1,2.902371287E-1
2.484411401E1,1.092607975E0,-4.424951673E-1,-1.244636998E-2
2.486357484E1,3.746891916E-1,-2.470184416E-1,-3.213912249E-1
2.488303568E1,-1.625663936E-1,2.755763829E-1,-6.071232557E-1
2.490249640E1,-2.080758214E-1,4.805215001E-1,-6.727911830E-1
2.492195724E1,8.254310489E-2,3.042870164E-1,-4.988474548E-1
2.494141807E1,3.255145550E-1,1.916588284E-2,-1.259144992E-1
2.496087890E1,2.625955045E-1,-7.521272451E-2,1.303432733E-1
2.498033974E1,-8.300124854E-2,-1.098793000E-1,2.792415619E-1
2.499980057E1,-6.872992516E-1,-1.414915472E-1,2.798524201E-1
2.501926140E1,-1.286862969E0,-2.167806327E-1,2.690095901E-1
2.503872213E1,-1.781663537E0,-4.299724400E-1,6.635518372E-2
2.505818297E1,-2.121915102E0,-8.726966977E-1,-4.394408464E-1
2.507764380E1,-1.773874998E0,-1.447062254E0,-6.097193956E-1
2.509710463E1,-1.201800108E0,-1.952400208E0,2.089921087E-1
2.511656547E1,-7.949641347E-1,-9.461531639E-1,4.143953919E-1
2.513602630E1,-3.221548200E-1,8.714749813E-1,-1.466839015E-1
2.515548713E1,6.197986603E-1,1.349629402E0,-6.910407543E-2
2.517494797E1,1.522656798E0,4.515054226E-1,1.977674663E-2
2.519440880E1,1.469511628E0,-1.909715980E-1,2.954294682E-1
2.521386963E1,7.551051974E-1,-6.177370250E-2,4.867828786E-1
2.523333047E1,1.596647799E-1,3.505600393E-1,2.990946770E-1
2.525279120E1,1.413388401E-1,8.865938783E-1,-1.195004210E-1
2.527225203E1,5.594757795E-1,1.002810836E0,-3.407861888E-1
2.529171286E1,8.818596601E-1,5.874228477E-1,-2.778671086E-1
2.531117370E1,6.527853608E-1,1.677587330E-1,-7.796161622E-2
2.533063453E1,8.529199660E-2,-7.612902671E-2,3.817904799E-4
2.535009536E1,-2.540434003E-1,-1.917351782E-1,-6.643154658E-3
2.536955620E1,-2.520580888E-1,-1.892917305E-1,4.879282415E-2
2.538901703E1,-3.123046272E-2,-2.924515121E-2,2.112828493E-1
2.540847786E1,1.503490955E-1,6.757691503E-2,3.534616232E-1
2.542793870E1,-3.042870164E-1,-6.467530876E-2,2.037997693E-1
2.544739953E1,-1.244560599E0,-3.951531649E-1,-5.046506524E-1
2.546686026E1,-9.314924479E-1,-1.153999925E0,-1.156443357E0
2.548632109E1,1.804341823E-1,-1.390404582E0,2.418260872E-1
2.550578192E1,6.940187216E-1,2.083812505E-1,8.952987194E-1
2.552524276E1,4.105774760E-1,1.651702046E0,1.958585232E-1
2.554470359E1,5.254200697E-1,1.386586666E0,-1.527925581E-1
2.556416442E1,4.618901312E-1,4.893790483E-1,-1.253036410E-1
2.558362526E1,4.110356271E-1,-9.544761851E-3,-5.322159454E-2
2.560308609E1,5.335140228E-1,-1.305723470E-2,-1.193477064E-1
2.562254692E1,7.079159021E-1,7.185296714E-2,-1.254563481E-1
2.564200776E1,7.083740830E-1,5.352702737E-2,-7.612902671E-2
2.566146859E1,4.304305911E-1,1.075885594E-1,-1.036179364E-1
2.568092943E1,-6.849320978E-2,3.474293277E-2,-1.013271958E-1
2.570039026E1,-4.069122970E-1,7.475458086E-2,-1.083521396E-1
2.571985109E1,-5.533671379E-1,1.561523080E-1,-1.390480995E-1
2.573931193E1,-6.773726940E-1,6.131555140E-2,-1.263726503E-1
2.575877265E1,-7.601448894E-1,-1.998291463E-1,-2.338848561E-1
2.577823349E1,-9.559270144E-1,-5.628355145E-1,-5.128973126E-1
2.579769432E1,-9.992983937E-1,-8.591049314E-1,-5.475639105E-1
2.581715515E1,-1.031216145E0,-9.908990264E-1,-2.010508776E-1
2.583661599E1,-1.003879905E0,-6.914225817E-1,1.257617921E-1
2.585607682E1,-4.377609789E-1,2.546542585E-1,-1.352301836E-1
2.587553765E1,6.055960655E-1,1.167897105E0,8.475748822E-3
2.589499849E1,1.182863235E0,1.196760416E0,-1.039233729E-1
2.591445932E1,1.345353365E0,-1.030834299E-2,-2.451094985E-2
2.593392015E1,9.252310395E-1,-8.717803955E-1,3.284161687E-1
2.595338099E1,1.825722158E-1,-8.916335106E-1,4.950295389E-1
2.597284182E1,-4.162279963E-1,-3.093266487E-1,4.189768732E-1
2.599230265E1,-6.831759214E-1,3.291797638E-1,1.705076247E-1
2.601176349E1,-3.971384764E-1,9.212604165E-1,6.666062027E-2
2.603122432E1,9.262236953E-2,9.974658489E-1,1.874591261E-1
2.605068515E1,1.692859083E-1,5.489383340E-1,2.835176289E-1
2.607014599E1,-9.827287495E-2,-3.825540841E-2,2.462548614E-1
2.608960682E1,-2.607629001E-1,-4.611265361E-1,1.752418280E-1
2.610906765E1,-3.253618479E-1,-5.648208261E-1,2.131154537E-1
2.612852849E1,-2.926805913E-1,-4.461603761E-1,3.154352903E-1
2.614798922E1,-5.220603347E-1,-2.743546367E-1,2.244164497E-1
2.616745005E1,-1.091844440E0,-5.909352899E-1,-5.121337771E-1
2.618691088E1,-9.501237869E-1,-1.337564826E0,-1.081765175E0
2.620637172E1,-1.379790753E-1,-1.625740290E0,2.598465979E-1
2.622583255E1,7.505237460E-1,-9.384410083E-2,9.334777594E-1
2.624529338E1,1.449963927E0,1.700418472E0,4.803687930E-1
2.626475422E1,1.743789911E0,1.613370299E0,1.458439697E-2
2.628421505E1,1.519449830E0,9.455423355E-1,-4.963276442E-3
2.630367588E1,9.844849706E-1,3.195586503E-1,8.071050793E-2
2.632313672E1,4.360810816E-1,1.081994250E-1,-3.535379842E-2
2.634259755E1,3.794997558E-2,-2.752709389E-1,-7.735075057E-2
2.636205838E1,-1.526398361E-1,-4.956403971E-1,-1.320231557E-1
2.638151922E1,1.443168055E-2,-3.850739002E-1,-3.598757088E-1
2.640098005E1,2.286925018E-1,-2.607629001E-1,-3.009272516E-1
2.642044088E1,2.114355713E-1,3.901898861E-2,-1.181259751E-1
2.643990172E1,-1.211803034E-1,3.378845751E-1,4.466948658E-2
2.645936255E1,-5.289325118E-1,4.231002033E-1,1.133917719E-1
2.647882338E1,-7.954223156E-1,2.267071903E-1,8.956804872E-2
2.649828422E1,-1.002963662E0,-2.726747692E-1,-6.391172856E-2
2.651774505E1,-1.234175920E0,-8.589522243E-1,-4.314996004E-1
2.653720588E1,-1.372689486E0,-1.353447318E0,-4.197404683E-1
2.655666672E1,-1.500054836E0,-1.975002170E0,1.312595755E-1
2.657612755E1,-1.349782109E0,-8.401681185E-1,1.085048541E-1
2.659558838E1,-2.541961074E-1,8.624647260E-1,2.825249685E-3
2.661504922E1,1.226998210E0,1.540524602E0,4.894553870E-2
2.663451005E1,2.154138327E0,7.751110196E-1,2.085339576E-1
2.665397088E1,1.687132120E0,1.534034163E-1,5.408443809E-1
2.667343172E1,3.111592531E-1,1.278998107E-1,5.894081593E-1
2.669289255E1,-6.390409470E-1,2.659552395E-1,2.257908881E-1
2.671235338E1,-5.933787823E-1,6.278926134E-1,-1.083521396E-1
2.673181422E1,2.154061943E-1,8.267291188E-1,-1.906661689E-1
2.675127505E1,8.193987608E-1,5.574904680E-1,-8.544471115E-2
2.677073588E1,5.828413367E-1,2.025780380E-1,4.176788032E-2
2.679019672E1,-8.987347782E-2,4.879282415E-2,2.298378758E-2
2.680965755E1,-4.638754427E-1,3.428478539E-2,-2.252563834E-2
2.682911838E1,-3.580431044E-1,-1.183550525E-2,3.581194952E-2
2.684857922E1,2.298378758E-2,-1.587484777E-1,1.799760312E-1
2.686804005E1,1.025489271E-1,-3.413970470E-1,2.297615111E-1
2.688750088E1,-5.287798047E-1,-5.891027451E-1,-1.692859083E-1
2.690696172E1,-1.135521293E0,-8.589522243E-1,-1.025718331E0
2.692642255E1,-3.316232264E-1,-1.346727729E0,-7.176897526E-1
2.694588349E1,7.760273218E-1,-4.466184974E-1,8.766673207E-1
2.696534432E1,1.146516800E0,1.210504889E0,5.128973126E-1
2.698480515E1,7.474694252E-1,1.672929525E0,-1.773798615E-1
2.700426599E1,5.235874653E-1,9.563851953E-1,-4.024835229E-1
2.702372682E1,7.007382512E-1,1.262199283E-1,-3.297906220E-1
2.704318765E1,8.957568407E-1,-2.549596727E-1,-2.887099683E-1
2.706264849E1,9.145409465E-1,-4.385245442E-1,-1.671478748E-1
2.708210932E1,9.472221732E-1,-3.746891916E-1,2.283107117E-2
2.710157015E1,8.925498128E-1,-2.344193682E-2,5.199986324E-2
2.712103099E1,4.374555349E-1,1.683696061E-1,1.081994250E-1
2.714049182E1,-2.515999377E-1,4.017199576E-1,1.805869043E-1
2.715995265E1,-7.314342260E-1,6.231584549E-1,1.379790753E-1
2.717941349E1,-8.765146136E-1,6.338485479E-1,6.711876392E-2
2.719887432E1,-8.507055640E-1,3.681223989E-1,-8.788817376E-2
2.721833515E1,-9.831104875E-1,-7.307469845E-2,-3.557523787E-1
2.723779599E1,-1.511203051E0,-7.799979448E-1,-5.243510604E-1
2.725725682E1,-2.060828686E0,-1.627572894E0,-4.776198864E-1
2.727671765E1,-1.744248033E0,-2.312657595E0,1.262199283E-1
2.729617859E1,-6.668352485E-1,-1.177365541E0,1.395062506E-1
2.731563942E1,2.105192691E-1,6.424006820E-1,1.590539217E-1
2.733510026E1,7.111229897E-1,1.193858862E0,-2.802342176E-2
2.735456109E1,1.188361049E0,3.720930219E-1,-1.603520010E-3
2.737402192E1,1.306410670E0,-5.241983533E-1,8.880446851E-2
2.739348276E1,9.029344916E-1,-7.981712222E-1,3.006218374E-1
2.741294359E1,3.823249936E-1,-4.105774760E-1,3.983601928E-1
2.743240442E1,1.920406222E-1,2.051742077E-1,2.123518735E-1
2.745186526E1,2.551124096E-1,4.872410297E-1,2.619082667E-2
2.747132609E1,2.015090138E-1,2.971093655E-1,2.222020552E-2
2.749078693E1,-1.392008066E-1,1.611155830E-2,-1.824958436E-2
2.751024776E1,-4.844921231E-1,-2.825249685E-3,-6.452259421E-2
2.752970859E1,-5.524508357E-1,5.902481079E-2,-1.031597927E-1
2.754916943E1,-3.403280377E-1,1.566104591E-1,4.237874225E-2
2.756863026E1,-1.657734364E-1,1.677587330E-1,3.424660563E-1
2.758809109E1,-5.825359225E-1,-4.665479809E-2,2.815323174E-1
2.760755203E1,-1.182863235E0,-9.779181480E-1,-4.942659736E-1
2.762701286E1,-4.568504989E-1,-2.230496407E0,-1.043128014E0
2.764647370E1,3.769799173E-1,-6.453022957E-1,6.004037261E-1
2.766593453E1,1.365664601E0,1.623449564E0,8.670461774E-1
2.768539536E1,1.278616309E0,2.516533852E0,3.032180071E-1
2.770485620E1,9.802088737E-1,1.254181743E0,-9.460768104E-2
2.772431703E1,7.870228887E-1,1.015562657E-2,-1.123227626E-1
2.774377786E1,8.355866671E-1,-3.922515512E-1,-9.277509153E-2
2.776323870E1,9.044616818E-1,-3.754527569E-1,-1.526398361E-1
2.778269963E1,6.900480986E-1,-7.322741300E-2,-1.868482679E-1
2.780216047E1,3.829358518E-1,9.063705802E-2,-1.886808574E-1
2.782162130E1,1.071304083E-1,8.972076327E-2,-1.419496983E-1
2.784108213E1,-1.385899484E-1,2.615264952E-1,-8.880446851E-2
2.786054297E1,-2.989419401E-1,4.909062088E-1,-1.227074638E-1
2.788000380E1,-4.522690177E-1,4.255436659E-1,-9.674570709E-2
2.789946463E1,-7.083740830E-1,2.004400045E-1,-1.199585721E-1
2.791892547E1,-9.960913658E-1,-1.784488708E-1,-3.125337064E-1
2.793838630E1,-1.222111344E0,-5.683333278E-1,-5.109120011E-1
2.795784713E1,-1.401705623E0,-8.076395988E-1,-4.734965563E-1
2.797730807E1,-1.341993570E0,-1.033812284E0,-1.103374511E-1
2.799676890E1,-1.173089504E0,-1.441106319E0,1.170569658E-1
2.801622974E1,-5.895608664E-1,-3.920988441E-1,-2.306778133E-1
2.803569057E1,2.853502035E-1,1.413006544E0,-1.839466542E-1
2.805515140E1,1.118722439E0,1.362762928E0,-2.313650399E-2
2.807461224E1,1.685146809E0,5.179370046E-1,3.018435538E-1
2.809407307E1,1.628031015E0,-4.405862093E-2,6.294198036E-1
2.811353390E1,1.057788730E0,3.627009690E-2,6.153699160E-1
2.813299484E1,4.644863009E-1,4.026362598E-1,3.505600393E-1
2.815245568E1,2.027307451E-1,7.175370455E-1,-1.153007243E-2
2.817191651E1,1.960112303E-1,6.772199869E-1,-2.015090138E-1
2.819137734E1,2.632063627E-1,2.717584670E-1,-1.611919403E-1
2.821083818E1,7.017309219E-2,-4.940368980E-2,-6.834049523E-2
2.823029901E1,-3.565159440E-1,-1.317177117E-1,-5.581776798E-2
2.824975984E1,-5.136609077E-1,-1.865428388E-1,-7.735075057E-2
2.826922068E1,-3.942368627E-1,-1.935677826E-1,1.901316643E-2
2.828868151E1,-2.418260872E-1,-7.170025259E-2,1.534034163E-1
2.830814234E1,-3.007745445E-1,4.375318810E-2,9.735657275E-2
2.832760328E1,-8.244383931E-1,7.735075057E-2,-2.490037531E-1
2.834706411E1,-1.395138741E0,-2.173915058E-1,-8.916335106E-1
2.836652495E1,-5.087739825E-1,-1.836335897E0,-7.062360644E-1
2.838598578E1,2.435059696E-1,-1.429347277E0,1.037324786E0
2.840544672E1,2.480874658E-1,9.046143889E-1,7.636573315E-1
2.842490755E1,6.799688339E-1,1.653992772E0,1.072831303E-1
2.844436838E1,8.282563090E-1,1.005254388E0,-2.570977211E-1
2.846382922E1,6.448441148E-1,3.499491513E-1,-2.102138400E-1
2.848329005E1,6.025417447E-1,-1.351538301E-2,-1.535561383E-1
2.850275088E1,6.782889962E-1,-1.973856837E-1,-1.563050300E-1
2.852221172E1,5.981130004E-1,-3.626246154E-1,-2.358701676E-1
2.854167255E1,2.222784162E-1,-2.574031353E-1,-3.264308572E-1
2.856113349E1,-2.931387424E-1,-1.955530941E-1,-1.598175019E-1
2.858059432E1,-6.616429090E-1,4.650207981E-2,-2.519817324E-3
2.860005515E1,-7.581595778E-1,3.617083132E-1,1.037706509E-1
2.861951599E1,-7.522036433E-1,5.770381689E-1,9.521854669E-2
2.863897682E1,-7.323505282E-1,5.303069949E-1,-5.597048625E-2
2.865843765E1,-8.820123672E-1,5.566505343E-2,-3.702604175E-1
2.867789849E1,-1.179656267E0,-6.683624387E-1,-7.602975965E-1
2.869735943E1,-1.338786483E0,-1.314351916E0,-7.512873411E-1
2.871682026E1,-1.193095326E0,-2.114737511E0,1.204167232E-1
2.873628109E1,-4.724275470E-1,-1.279532671E0,5.385536551E-1
2.875574193E1,3.846157491E-1,9.119447470E-1,2.792415619E-1
2.877520276E1,9.899827242E-1,1.507537961E0,7.200568914E-2
2.879466370E1,1.209588647E0,5.651262999E-1,8.651372790E-2
2.881412453E1,8.004619479E-1,-3.962221742E-1,2.114355713E-1
2.883358536E1,1.439350098E-1,-6.966149211E-1,3.811032772E-1
2.885304620E1,-2.421315312E-1,-5.235874653E-1,4.140899479E-1
2.887250703E1,-1.758527011E-1,5.276344717E-2,2.392299175E-1
2.889196786E1,1.013271958E-1,6.088030934E-1,7.719803602E-2
2.891142880E1,1.840993762E-1,7.033344507E-1,1.459203213E-1
2.893088963E1,-1.217911690E-1,4.434114695E-1,2.572504282E-1
2.895035047E1,-5.164098144E-1,1.547778696E-1,2.021198869E-1
2.896981130E1,-6.853139400E-1,2.634354308E-2,1.550832987E-1
2.898927213E1,-6.598103046E-1,4.314232618E-2,1.914297491E-1
2.900873297E1,-4.892263412E-1,7.200568914E-2,3.267363012E-1
2.902819390E1,-7.138718367E-1,-2.167806327E-1,2.395353466E-1
2.904765474E1,-1.079474449E0,-1.375285745E0,-5.918515921E-1
2.906711557E1,-1.307785153E0,-2.711246967E0,-2.769508064E-1
2.908657640E1,7.604503036E-1,-6.814960241E-1,3.131445646E-1
2.910603734E1,2.431318283E0,1.665751934E0,8.943824172E-1
2.912549818E1,1.899713159E0,2.308228970E0,1.816559136E-1
2.914495901E1,1.087873816E0,1.369635224E0,-3.594175577E-1
2.916441984E1,8.012255430E-1,1.992182732E-1,-1.398116797E-1
2.918388068E1,1.000214696E0,-5.504655242E-1,9.995274991E-2
2.920334161E1,1.336190343E0,-4.495201111E-1,5.612320080E-2
2.922280245E1,1.241659045E0,-7.185296714E-2,-2.094502598E-1
2.924226328E1,6.918807030E-1,2.130390890E-2,-4.536434710E-1
2.926172411E1,8.483384550E-2,-2.018144578E-1,-4.339430630E-1
2.928118495E1,-3.097847998E-1,-1.621082425E-1,-1.165988147E-1
2.930064588E1,-5.171734095E-1,1.083521396E-1,1.808923334E-1
2.932010672E1,-5.723039508E-1,2.926805913E-1,3.386481702E-1
2.933956755E1,-5.639045238E-1,2.531270981E-1,3.012326956E-1
2.935902838E1,-6.445387006E-1,-9.384410083E-2,7.964149863E-2
2.937848922E1,-8.615484238E-1,-5.965858102E-1,-2.902371287E-1
2.939795015E1,-1.255708933E0,-1.059010506E0,-6.271290779E-1
2.941741099E1,-1.522351384E0,-1.305952549E0,-7.247146964E-1
2.943687182E1,-1.411784887E0,-1.544800639E0,-4.788416326E-1
2.945633265E1,-7.276163101E-1,-1.413922906E0,1.446985900E-1
2.947579359E1,1.756236190E-3,9.653954506E-1,6.772962958E-2
2.949525443E1,6.147590280E-1,1.974238634E0,-3.588830587E-3
2.951471526E1,1.274034858E0,1.535637736E0,2.435823344E-2
2.953417609E1,1.520366073E0,5.619192123E-1,1.602756530E-1
2.955363693E1,1.101465583E0,1.909715980E-1,4.127155244E-1
2.957309786E1,3.757582009E-1,8.361211419E-2,4.473820925E-1
2.959255870E1,1.327867359E-1,3.198640645E-1,2.233474404E-1
2.961201953E1,4.820486605E-1,7.604503036E-1,-7.887791097E-2
2.963148036E1,9.185115695E-1,9.403499961E-1,-1.773798615E-1
2.965094130E1,8.891900182E-1,6.799688339E-1,-1.556941569E-1
2.967040213E1,2.851974964E-1,3.325395286E-1,-1.892917305E-1
2.968986297E1,-4.059959948E-1,5.505418777E-2,-2.711476088E-1
2.970932380E1,-7.384591699E-1,-2.169333547E-1,-3.646099269E-1
2.972878474E1,-6.071232557E-1,-3.172678947E-1,-2.884045243E-1
2.974824557E1,-2.137263119E-1,-2.198349684E-1,-2.054032870E-2
2.976770640E1,1.556941569E-1,-1.824194938E-1,2.103665620E-1
2.978716724E1,-2.191477455E-2,-4.273762703E-1,3.336848691E-2
2.980662818E1,-4.580722153E-1,-5.112174749E-1,-4.066068828E-1
2.982608901E1,-3.372737169E-1,-1.643455386E0,-8.759037256E-1
2.984554984E1,1.020907760E-1,-1.345964193E0,4.543306679E-2
2.986501078E1,-1.256090701E-1,9.704350829E-1,5.849793553E-1
2.988447161E1,3.282634616E-1,1.535332322E0,6.712640524E-1
2.990393245E1,1.033506870E0,1.048320293E0,3.470475674E-1
2.992339328E1,1.739971995E0,1.790597439E-1,3.016908467E-1
2.994285422E1,1.125594735E0,-1.497382224E-1,2.092975378E-1
2.996231505E1,2.252563834E-2,-5.206858516E-1,7.811433077E-2
2.998177588E1,-4.369973838E-1,-8.865175396E-2,-1.524871141E-1
3.000123672E1,-2.647335231E-1,6.564505696E-1,-3.168097436E-1
3.002069765E1,3.000109792E-1,5.692496300E-1,-2.899316847E-1
3.004015849E1,6.769145131E-1,-5.031998456E-2,-6.482802331E-2
3.005961932E1,3.235292733E-1,-3.094793558E-1,2.260963321E-1
3.007908015E1,-2.603047490E-1,-2.363283187E-1,2.780198455E-1
3.009854109E1,-6.821069121E-1,2.145662531E-2,1.329394430E-1
3.011800192E1,-8.597158194E-1,1.450040340E-1,-4.650207981E-2
3.013746276E1,-7.767909169E-1,5.429060757E-2,-1.633299738E-1
3.015692359E1,-7.974076271E-1,-2.815323174E-1,-3.204749227E-1
3.017638453E1,-1.025718331E0,-7.094430923E-1,-3.968330324E-1
3.019584536E1,-1.385517716E0,-1.058552265E0,-4.319577515E-1
3.021530620E1,-1.460348606E0,-1.859701514E0,-3.943895698E-1
3.023476713E1,-2.224311382E-1,-1.124067545E0,2.541961074E-1
3.025422797E1,3.258199990E-1,1.197829485E0,3.988183439E-1
3.027368880E1,7.494547367E-1,1.561141253E0,9.017891437E-2
3.029314963E1,1.248836637E0,9.508873820E-1,5.322159454E-2
3.031261057E1,1.292818904E0,1.944840699E-1,2.694677114E-1
3.033207140E1,9.075160027E-1,-7.383827865E-2,5.159516931E-1
3.035153224E1,4.851029813E-1,5.879573524E-3,5.426769853E-1
3.037099307E1,2.787834108E-1,4.014145136E-1,1.772271395E-1
3.039045401E1,2.245691717E-1,7.305179238E-1,-1.509599537E-1
3.040991484E1,3.513236046E-1,6.107884049E-1,-1.314122826E-1
3.042937568E1,2.827540338E-1,1.631772518E-1,-2.588539571E-2
3.044883661E1,-4.390590638E-2,-2.673296928E-1,-1.962403022E-2
3.046829744E1,-1.879172772E-1,-4.803687930E-1,-6.055197120E-2
3.048775828E1,-1.384372264E-1,-4.469239414E-1,-2.863428742E-2
3.050721911E1,-7.994692773E-2,-2.590830326E-1,7.811433077E-2
3.052668005E1,-1.147662178E-1,-1.317177117E-1,1.596647799E-1
3.054614088E1,-4.099666178E-1,-4.079813063E-1,-4.970912263E-2
3.056560172E1,-7.010436654E-1,-1.477147341E0,-2.363283187E-1
3.058506265E1,-1.025718331E0,-1.168660641E0,-6.292670965E-1
3.060452349E1,5.203804374E-1,-6.914225817E-1,-2.783252597E-1
3.062398432E1,9.369902015E-1,3.070359230E-1,5.448150039E-1
3.064344526E1,2.289979309E-1,1.622227788E0,2.103665620E-1
3.066290609E1,-1.074358448E-1,1.334968567E0,3.184132650E-2
3.068236692E1,4.108829200E-1,3.006218374E-1,6.788235158E-2
3.070182786E1,6.799688339E-1,-1.990655661E-1,7.872519642E-2
3.072128870E1,6.243801713E-1,-3.993528336E-2,-8.781181648E-3
3.074074953E1,4.501309991E-1,3.375791609E-1,-1.433241516E-1
3.076021047E1,2.180023640E-1,6.117047071E-1,-3.044397235E-1
3.077967130E1,2.878700197E-2,5.594757795E-1,-4.281398654E-1
3.079913213E1,-1.343138963E-1,2.966512144E-1,-3.062723279E-1
3.081859307E1,-2.734383345E-1,2.126573026E-1,1.168278884E-2
3.083805390E1,-4.270708263E-1,3.070359230E-1,1.897498667E-1
3.085751474E1,-6.141481996E-1,4.377609789E-1,1.831830740E-1
3.087697557E1,-8.048906922E-1,4.990001619E-1,7.154753804E-2
3.089643651E1,-9.458477497E-1,3.355938494E-1,-6.727148592E-2
3.091589734E1,-1.031979680E0,-1.220965981E-1,-1.595120728E-1
3.093535818E1,-1.252654552E0,-7.413607836E-1,-3.064250350E-1
3.095481911E1,-1.355585337E0,-1.262581110E0,-3.336085379E-1
3.097427995E1,-1.634139657E0,-1.689575672E0,-2.502254844E-1
3.099374078E1,-1.587561250E0,-2.328998327E0,-3.291797638E-1
3.101320172E1,-4.215730429E-1,-1.185459495E0,-4.163807034E-1
3.103266255E1,6.769145131E-1,1.237535715E0,2.771798894E-2
3.105212349E1,1.334815860E0,1.208977699E0,-9.644027799E-2
3.107158432E1,1.774333119E0,3.746891916E-1,1.943313628E-1
3.109104515E1,1.548618555E0,2.115119249E-2,4.482983947E-1
3.111050599E1,7.363211513E-1,6.727148592E-2,5.057196617E-1
3.112996692E1,-1.790597439E-1,2.332739830E-1,3.418551981E-1
3.114942776E1,-5.232820511E-1,4.606684148E-1,8.116865903E-2
3.116888870E1,-2.001345754E-1,5.200750232E-1,-1.286633909E-1
3.118834953E1,2.603047490E-1,3.377318680E-1,-1.140026376E-1
3.120781036E1,3.320813775E-1,7.658717036E-2,3.413207084E-2
3.122727120E1,-4.466948658E-2,-1.367573589E-1,1.259144992E-1
3.124673213E1,-4.637227356E-1,-2.193768173E-1,3.245219216E-2
3.126619297E1,-5.683333278E-1,-2.228892893E-1,-1.767689884E-1
3.128565390E1,-3.134499788E-1,-9.552398324E-2,-2.856556475E-1
3.130511474E1,8.376483619E-2,5.215258151E-2,-1.908188909E-1
3.132457557E1,2.572504282E-1,-5.115992390E-3,-3.894262947E-3
3.134403651E1,7.536543906E-2,-2.126573026E-1,1.362992078E-1
3.136349734E1,-3.204749227E-1,-3.557523787E-1,1.654679924E-1
3.138295818E1,-9.460004568E-1,-4.431060255E-1,-1.863901168E-1
3.140241911E1,-1.133841395E0,-7.969494462E-1,-7.682388425E-1
3.142187994E1,-1.709657758E-1,-1.732794285E0,-8.820123672E-1
3.144134088E1,1.259144992E-1,-1.157359719E0,9.453896284E-1
3.146080172E1,-4.066068828E-1,1.017777085E0,4.143953919E-1
3.148026255E1,2.705367506E-1,2.245462656E0,1.030834299E-2
3.149972349E1,7.445678115E-1,1.273271322E0,2.129627317E-1
3.151918432E1,2.807687223E-1,-3.504836559E-2,1.178205460E-1
3.153864526E1,-1.859319657E-1,-5.503128171E-1,4.528035223E-2
3.155810609E1,6.299543381E-2,-3.694968224E-1,2.102138400E-1
3.157756693E1,5.217548609E-1,2.259436101E-1,1.233183295E-1
3.159702786E1,6.721803546E-1,7.702241540E-1,-1.317177117E-1
3.161648870E1,5.292379856E-1,7.160098553E-1,-2.526689470E-1
3.163594953E1,1.983019859E-1,2.958876193E-1,-2.441168427E-1
3.165541047E1,1.253036410E-1,-2.128100246E-1,-1.277471036E-1
3.167487130E1,2.331212759E-1,-2.306778133E-1,5.688678101E-2
3.169433213E1,2.285397798E-1,5.520690605E-2,1.437823027E-1
3.171379307E1,3.642281145E-2,4.033998251E-1,9.980003536E-2
3.173325390E1,-1.957058012E-1,5.483275056E-1,-8.880446851E-2
3.175271484E1,-3.197113574E-1,3.212385178E-1,-2.618319094E-1
3.177217568E1,-2.239582986E-1,-1.167515293E-1,-2.529743910E-1
3.179163651E1,-3.265835941E-1,-5.593230724E-1,-1.421024203E-1
3.181109744E1,-1.153694510E0,-6.937133074E-1,-3.991237879E-1
3.183055828E1,-1.510286808E0,-7.302125096E-1,-4.863247275E-1
3.185001922E1,-9.763910174E-1,-1.408119678E0,-3.694968224E-1
3.186948005E1,-1.054505333E-1,-5.856665969E-2,5.191587210E-1
3.188894099E1,-1.207221523E-1,1.346727729E0,3.847684562E-1
3.190840182E1,-1.958585232E-1,1.662697554E0,-1.019380614E-1
3.192786276E1,4.534907341E-1,1.075198412E0,-1.825722158E-1
3.194732359E1,1.052749038E0,1.934150606E-1,1.138499230E-1
3.196678443E1,9.878447056E-1,-2.961930633E-1,4.518108666E-1
3.198624536E1,4.699840844E-1,-3.113119602E-1,6.471349001E-1
3.200570620E1,1.043815166E-1,6.803506613E-2,6.059014797E-1
3.202516703E1,1.779143699E-2,4.081340432E-1,3.516290486E-1
3.204462797E1,5.749764666E-2,3.853793144E-1,1.469893306E-1
3.206408880E1,1.039233729E-1,3.840812296E-2,8.086322248E-2
3.208354974E1,1.013271958E-1,-2.706894577E-1,8.071050793E-2
3.210301057E1,1.054505333E-1,-3.962221742E-1,1.196531355E-1
3.212247151E1,7.673988491E-2,-4.168388546E-1,9.140064567E-2
3.214193234E1,9.949459881E-2,-3.504073024E-1,-1.013271958E-1
3.216139318E1,2.787834108E-1,-2.466366626E-2,-3.152825832E-1
3.218085411E1,3.951531649E-1,3.653734922E-1,-3.088684976E-1
3.220031494E1,2.981783748E-1,5.069414377E-1,-2.204458266E-1
3.221977588E1,4.986183718E-2,3.826304376E-1,-1.422551423E-1
3.223923672E1,4.548651874E-1,-7.010436654E-1,3.609447181E-1
3.225869765E1,6.521745324E-1,-6.390409470E-1,1.836412251E-1
3.227815849E1,9.006437659E-1,2.409097999E-1,-1.275943816E-1
3.229761942E1,7.760273218E-1,2.584721744E-1,-9.460768104E-2
3.231708026E1,2.065486610E-1,-9.980003536E-2,1.954003721E-1
3.233654109E1,-2.430478185E-1,-2.332739830E-1,2.920697331E-1
3.235600203E1,-4.484511018E-1,-4.099666178E-1,3.256672919E-1
3.237546286E1,-2.398407906E-1,-5.032762289E-1,3.187950552E-1
3.239492380E1,2.190713882E-1,-2.638172209E-1,2.835176289E-1
3.241438463E1,6.689732671E-1,7.857248187E-2,1.874591261E-1
3.243384557E1,9.206495881E-1,2.534325123E-1,9.246965498E-2
3.245330640E1,1.109254122E0,2.461021543E-1,8.788817376E-2
3.247276734E1,1.211115837E0,5.703949928E-2,1.605810821E-1
3.249222818E1,1.208061457E0,-1.578321904E-1,2.508363426E-1
3.251168901E1,1.184848547E0,-2.731329203E-1,3.126864135E-1
3.253114994E1,1.128954530E0,-2.862665057E-1,3.268890083E-1
3.255061078E1,1.017166257E0,-2.764926851E-1,3.082576394E-1
3.257007172E1,8.193987608E-1,-2.575558722E-1,2.622900605E-1
3.258953255E1,6.477457285E-1,-2.289979309E-1,2.166279256E-1
3.260899349E1,5.684860349E-1,-2.361755967E-1,2.129627317E-1
3.262845432E1,4.977784455E-1,-1.986074150E-1,2.216675580E-1
3.264791526E1,3.316232264E-1,-1.002581790E-1,2.005927265E-1
3.266737609E1,1.074358448E-1,-3.413207084E-2,1.204167232E-1
3.268683703E1,-7.536543906E-2,-2.496909723E-2,1.931859925E-2
3.270629786E1,-1.622609496E-1,-2.298378758E-2,-6.238456443E-2
3.272575880E1,-1.978438348E-1,-5.413788930E-2,-1.043815166E-1
3.274521963E1,-2.354120165E-1,-9.644027799E-2,-1.242346242E-1
3.276468047E1,-2.829067409E-1,-9.949459881E-2,-1.624136716E-1
3.278414140E1,-3.165042996E-1,-1.336266659E-2,-2.225838602E-1
3.280360224E1,-3.256672919E-1,9.567669779E-2,-2.653443813E-1
3.282306318E1,-3.507127464E-1,1.540142894E-1,-2.865719497E-1
3.284252401E1,-4.747183025E-1,1.828776449E-1,-2.902371287E-1
3.286198494E1,-6.491202116E-1,1.630245447E-1,-2.987892330E-1
3.288144578E1,-6.990583539E-1,1.153770834E-1,-2.888626754E-1
3.290090672E1,-5.910880566E-1,1.187368408E-1,-1.827249229E-1
3.292036755E1,-4.654026031E-1,1.909715980E-1,5.115992390E-3
3.293982849E1,-3.856847584E-1,3.473529816E-1,1.479056329E-1
3.295928932E1,-3.161988854E-1,4.808269441E-1,1.634826809E-1
3.297875026E1,-2.786307037E-1,5.125918984E-1,8.513928205E-2
3.299821109E1,-3.061196208E-1,4.589885175E-1,-4.100430012E-2
3.301767203E1,-3.759109080E-1,3.250564337E-1,-1.205694377E-1
3.303713286E1,-4.679987729E-1,1.917351782E-1,-1.344666034E-1
3.305659380E1,-5.153408051E-1,1.240819097E-1,-1.033125073E-1
3.307605463E1,-5.008327365E-1,1.219438836E-1,-1.075885594E-1
3.309551557E1,-4.618901312E-1,1.486692131E-1,-1.346193254E-1
3.311497640E1,-4.620428383E-1,1.587484777E-1,-1.914297491E-1
3.313443734E1,-4.366919696E-1,1.819613427E-1,-2.497673333E-1
3.315389818E1,-4.457022250E-1,2.293033600E-1,-3.021489978E-1
3.317335911E1,-4.602102637E-1,2.242637277E-1,-3.485747278E-1
3.319281995E1,-4.424951673E-1,1.906661689E-1,-3.704131246E-1
3.321228088E1,-4.220311940E-1,1.602756530E-1,-3.667479455E-1
3.323174172E1,-4.394408464E-1,1.074358448E-1,-3.514763117E-1
3.325120265E1,-4.980838597E-1,5.535962060E-2,-3.537670672E-1
3.327066349E1,-5.408443809E-1,-6.337722298E-3,-3.679696620E-1
3.329012442E1,-4.986947477E-1,-3.291033953E-2,-3.814086914E-1
3.330958526E1,-3.873646259E-1,-6.032289471E-3,-3.754527569E-1
3.332904620E1,-2.596938908E-1,3.367391974E-2,-3.403280377E-1
3.334850703E1,-1.422551423E-1,5.978839099E-2,-2.856556475E-1
3.336796797E1,-4.390590638E-2,7.276926935E-2,-2.502254844E-1
3.338742880E1,3.550651670E-2,6.742420048E-2,-2.604574561E-1
3.340688974E1,1.037706509E-1,4.253146052E-2,-2.899316847E-1
3.342635057E1,1.323285848E-1,3.535379842E-2,-3.074940443E-1
3.344581151E1,1.337030232E-1,2.496909723E-2,-3.174206018E-1
3.346527234E1,1.306487024E-1,-2.222020552E-2,-3.033707142E-1
3.348473328E1,1.259144992E-1,-7.933606207E-2,-2.716057599E-1
3.350419411E1,1.315650046E-1,-1.153770834E-1,-2.253327519E-1
3.352365505E1,1.265253723E-1,-1.219438836E-1,-1.727983803E-1
3.354311588E1,1.101847365E-1,-1.002581790E-1,-1.335503161E-1
3.356257682E1,9.735657275E-2,-8.819360286E-2,-1.071304083E-1
3.358203765E1,6.864593178E-2,-1.314122826E-1,-7.857248187E-2
3.360149859E1,-1.030834299E-2,-2.097556889E-1,-6.070468575E-2
3.362095953E1,-1.422551423E-1,-2.937496006E-1,-5.535962060E-2
3.364042036E1,-2.606101930E-1,-3.354411125E-1,-3.733910993E-2
3.365988130E1,-2.998582423E-1,-2.940550447E-1,2.038761228E-2
3.367934213E1,-2.618319094E-1,-2.028834671E-1,8.055779338E-2
3.369880307E1,-2.059377879E-1,-1.277471036E-1,9.078978002E-2
3.371826390E1,-1.402698308E-1,-7.780890167E-2,7.658717036E-2
3.373772484E1,-3.107774630E-2,-9.506583214E-2,6.101011857E-2
3.375718568E1,9.231694043E-2,-2.184605151E-1,6.772962958E-2
3.377664661E1,1.543197185E-1,-3.366628587E-1,8.880446851E-2
3.379610755E1,1.530979872E-1,-3.278053105E-1,9.430225194E-2
3.381556838E1,1.245400533E-1,-2.034943253E-1,7.063124329E-2
3.383502932E1,1.040760875E-1,-5.123628303E-2,6.574432552E-2
3.385449015E1,9.460768104E-2,1.382081583E-2,9.705114365E-2
3.387395109E1,7.750347257E-2,-3.367391974E-2,1.401171088E-1
3.389341192E1,4.879282415E-2,-1.894444376E-1,1.773798615E-1
3.391287286E1,2.008217946E-2,-4.084394574E-1,1.909715980E-1
3.393233370E1,-1.603520010E-3,-5.909352899E-1,1.770744324E-1
3.395179463E1,1.580612548E-2,-6.404153705E-1,1.564577371E-1
3.397125557E1,6.192641705E-2,-5.703186393E-1,1.592066288E-1
3.399071640E1,1.262199283E-1,-4.505891204E-1,1.972329617E-1
3.401017734E1,1.815031916E-1,-3.520871997E-1,2.548069656E-1
3.402963818E1,2.060905099E-1,-3.125337064E-1,2.978729308E-1
3.404909911E1,2.457967103E-1,-3.088684976E-1,3.077994883E-1
3.406855995E1,3.391063213E-1,-3.119228184E-1,3.074940443E-1
3.408802088E1,4.841867089E-1,-3.441459537E-1,3.197113574E-1
3.410748182E1,6.364447474E-1,-3.812559843E-1,3.523926139E-1
3.412694265E1,7.381537557E-1,-4.421897531E-1,3.685805500E-1
3.414640359E1,8.074868917E-1,-5.139663815E-1,3.649153411E-1
3.416586442E1,8.856775761E-1,-5.710822344E-1,3.473529816E-1
3.418532536E1,9.516509771E-1,-5.994874239E-1,3.293324709E-1
3.420478630E1,9.757801294E-1,-5.947532058E-1,2.928332984E-1
3.422424713E1,9.449314475E-1,-5.481747985E-1,2.199876755E-1
3.424370807E1,8.728494048E-1,-4.846448302E-1,1.390480995E-1
3.426316890E1,7.720566988E-1,-4.551706314E-1,6.406444311E-2
3.428262984E1,6.683624387E-1,-4.909062088E-1,1.351538301E-2
3.430209078E1,5.455785990E-1,-5.408443809E-1,8.323032409E-3
3.432155161E1,4.220311940E-1,-5.370265245E-1,1.488982886E-2
3.434101255E1,3.606393039E-1,-4.727329910E-1,3.901898861E-2
3.436047338E1,3.455203772E-1,-4.096612036E-1,7.200568914E-2
3.437993432E1,3.197113574E-1,-3.647626340E-1,8.177952468E-2
3.439939515E1,2.479347438E-1,-3.607920110E-1,6.299543381E-2
3.441885609E1,1.236237586E-1,-3.760636151E-1,2.115119249E-2
3.443831703E1,-2.405280061E-2,-4.076758921E-1,-1.443168055E-2
3.445777786E1,-1.789070219E-1,-4.547124803E-1,-2.191477455E-2
3.447723880E1,-3.704131246E-1,-5.060251355E-1,-3.856083751E-2
3.449669974E1,-5.848266482E-1,-4.539488852E-1,-6.956222653E-2
3.451616057E1,-8.145118356E-1,-3.030653000E-1,-1.043815166E-1
3.453562151E1,-1.035492182E0,-2.297615111E-1,-1.330921650E-1
3.455508234E1,-1.150945544E0,-4.227947891E-1,-1.294269711E-1
3.457454328E1,-1.068478823E0,-7.546470761E-1,-7.597630471E-2
3.459400422E1,-9.073632956E-1,-9.860121012E-1,5.581776798E-2
3.461346505E1,-8.467349410E-1,-9.968549609E-1,1.604283601E-1
3.463292599E1,-8.389464021E-1,-8.731548190E-1,1.647044122E-1
3.465238682E1,-8.163444400E-1,-7.176897526E-1,5.520690605E-2
3.467184776E1,-7.650317550E-1,-6.727911830E-1,-9.903645515E-2
3.469130870E1,-6.966149211E-1,-7.454841137E-1,-2.118937224E-1
3.471076953E1,-6.495783329E-1,-8.636864424E-1,-2.407570779E-1
3.473023047E1,-6.066650748E-1,-9.214131832E-1,-1.853211075E-1
3.474969130E1,-5.124391913E-1,-8.529962897E-1,-1.037706509E-1
3.476915224E1,-3.737728894E-1,-6.860775352E-1,-1.977674663E-2
3.478861318E1,-2.746600807E-1,-4.986947477E-1,6.559160352E-2
3.480807401E1,-2.654971182E-1,-3.501018882E-1,1.275943816E-1
3.482753495E1,-3.195586503E-1,-2.842811942E-1,1.471420527E-1
3.484699588E1,-3.650680780E-1,-3.026071489E-1,1.413388401E-1
3.486645672E1,-3.343721032E-1,-3.844630122E-1,1.262199283E-1
3.488591765E1,-2.315941155E-1,-4.238637984E-1,9.628756344E-2
3.490537859E1,-1.431714296E-1,-3.653734922E-1,6.085740402E-2
3.492483942E1,-1.231656075E-1,-2.189186662E-1,3.917170316E-2
3.494430036E1,-1.372154951E-1,-5.261072889E-2,4.466948658E-2
3.496376130E1,-1.283579618E-1,7.002037764E-2,5.978839099E-2
3.498322213E1,-9.674570709E-2,9.766200930E-2,6.528617442E-2
3.500268307E1,-7.475458086E-2,7.200568914E-2,4.619665071E-2
3.502214390E1,-5.154171586E-2,3.229947388E-2,1.565340906E-2
3.504160484E1,-3.901898861E-2,2.069304511E-2,-2.519817324E-3
3.506106578E1,-3.428478539E-2,3.794997558E-2,-8.475748822E-3
3.508052661E1,-1.809686981E-2,6.360629201E-2,2.519817324E-3
3.509998755E1,3.130682046E-3,9.338594973E-2,1.351538301E-2
3.511944849E1,1.534797717E-2,1.329394430E-1,1.718057133E-2
3.513890932E1,1.550069358E-2,1.769217104E-1,9.850194678E-3
3.515837026E1,6.032289471E-3,2.154061943E-1,3.817904799E-4
3.517783120E1,-2.214384731E-3,2.433532625E-1,-9.926552884E-4
3.519729203E1,8.399390499E-4,2.749654949E-1,-3.436114406E-3
3.521675297E1,1.336266659E-2,3.317759335E-1,-3.436114406E-3
3.523621390E1,2.557996288E-2,4.004982114E-1,-2.519817324E-3
3.525567474E1,5.429060757E-2,4.498255551E-1,1.298087649E-3
3.527513568E1,9.017891437E-2,4.820486605E-1,1.366809942E-2
3.529459661E1,1.074358448E-1,5.193114281E-1,2.405280061E-2
3.531405744E1,1.181259751E-1,5.732202530E-1,2.267835476E-2
3.533351838E1,1.329394430E-1,6.422479749E-1,4.505127668E-3
3.535297932E1,1.569158882E-1,7.183006406E-1,-2.588539571E-2
3.537244015E1,1.882227063E-1,7.896190882E-1,-5.581776798E-2
3.539190109E1,2.111301422E-1,8.647554517E-1,-9.231694043E-2
3.541136203E1,2.099084109E-1,9.287435412E-1,-1.210275814E-1
3.543082286E1,1.698967665E-1,9.829577804E-1,-1.326340139E-1
3.545028380E1,1.181259751E-1,1.010752082E0,-1.337030232E-1
3.546974474E1,7.643445581E-2,1.013653755E0,-1.170569658E-1
3.548920557E1,4.298960790E-2,1.009377718E0,-9.537126124E-2
3.550866651E1,1.779143699E-2,9.941060543E-1,-7.704532146E-2
3.552812744E1,-2.115119249E-2,9.773072600E-1,-5.749764666E-2
3.554758828E1,-9.735657275E-2,9.780708551E-1,-4.207331315E-2
3.556704922E1,-2.007454336E-1,9.724203944E-1,-5.566505343E-2
3.558651015E1,-3.085630834E-1,9.718095064E-1,-9.124792367E-2
3.560597099E1,-4.137845337E-1,9.673807621E-1,-1.398116797E-1
3.562543192E1,-4.971675575E-1,8.830813766E-1,-1.874591261E-1
3.564489286E1,-5.471057892E-1,7.862593532E-1,-2.135736048E-1
3.566435370E1,-5.721512437E-1,7.210494876E-1,-2.094502598E-1
3.568381463E1,-5.591703653E-1,6.590467095E-1,-2.030361742E-1
3.570327557E1,-4.982365966E-1,6.016254425E-1,-2.021198869E-1
3.572273640E1,-4.090503156E-1,6.039161682E-1,-1.698967665E-1
3.574219734E1,-3.160461783E-1,6.365974545E-1,-1.260672212E-1
3.576165828E1,-2.427423894E-1,6.434696913E-1,-9.308052063E-2
3.578111911E1,-9.506583214E-2,5.778017044E-1,-4.283689335E-2
3.580058005E1,1.120173261E-1,4.838812649E-1,4.069886729E-2
3.582004099E1,2.387717664E-1,4.347066581E-1,1.359937787E-1
3.583950182E1,2.147953212E-1,4.429533184E-1,1.828776449E-1
3.585896276E1,1.188895553E-1,4.971675575E-1,1.825722158E-1
3.587842370E1,2.893971838E-2,5.530617237E-1,1.529452652E-1
3.589788453E1,-1.702785492E-2,5.608502030E-1,1.135444939E-1
3.591734547E1,-3.291033953E-2,5.345830321E-1,7.964149863E-2
3.593680640E1,-3.856083751E-2,4.990001619E-1,8.101594448E-2
3.595626724E1,-5.581776798E-2,4.583776593E-1,1.072831303E-1
3.597572818E1,-9.613484144E-2,4.214203358E-1,1.498909444E-1
3.599518911E1,-1.451567411E-1,3.626246154E-1,2.010508776E-1
3.601464994E1,-1.857792437E-1,2.994000912E-1,2.419788092E-1
3.603411088E1,-1.938732117E-1,2.115882933E-1,2.819904685E-1
3.605357182E1,-2.184605151E-1,1.392008066E-1,3.056614697E-1
3.607303265E1,-2.593884468E-1,1.144607887E-1,2.974147797E-1
3.609249359E1,-2.512944937E-1,1.136972085E-1,2.740492225E-1
3.611195453E1,-2.030361742E-1,8.773545176E-2,2.729802132E-1
3.613141547E1,-1.614973694E-1,4.115701467E-2,2.732856274E-1
3.615087630E1,-1.362992078E-1,-8.254310489E-2,2.369391769E-1
3.617033724E1,-1.033125073E-1,-2.233474404E-1,1.567631811E-1
3.618979818E1,-5.673406646E-2,-3.073413372E-1,8.437569439E-2
3.620925901E1,-4.925097153E-2,-3.284161687E-1,4.482220486E-2
3.622871994E1,-8.376483619E-2,-2.865719497E-1,3.184132650E-2
3.624818088E1,-9.827287495E-2,-2.430478185E-1,4.207331315E-2
3.626764172E1,-1.269835234E-1,-2.430478185E-1,7.444914430E-2
3.628710265E1,-2.001345754E-1,-2.769508064E-1,9.078978002E-2
3.630656359E1,-2.942077518E-1,-3.157407343E-1,8.162680268E-2
3.632602442E1,-3.797288239E-1,-2.574031353E-1,1.007163301E-1
3.634548536E1,-4.182133079E-1,-1.390480995E-1,1.352301836E-1
3.636494630E1,-3.838521540E-1,-4.085158184E-2,1.761581302E-1
3.638440713E1,-3.064250350E-1,-2.359465137E-2,2.111301422E-1
3.640386807E1,-1.844048053E-1,-5.642863363E-2,2.435059696E-1
3.642332901E1,-3.000873141E-2,-1.179732606E-1,2.578612864E-1
3.644278984E1,5.306887627E-2,-2.461021543E-1,1.868482679E-1
3.646225078E1,8.972076327E-2,-4.026362598E-1,4.573849961E-2
3.648171172E1,1.692859083E-1,-4.733438492E-1,-6.360629201E-2
3.650117255E1,2.673296928E-1,-4.962512851E-1,-1.005636156E-1
3.652063349E1,3.064250350E-1,-5.321395993E-1,-8.513928205E-2
3.654009442E1,3.540725112E-1,-5.226711631E-1,-1.019380614E-1
3.655955526E1,4.964039922E-1,-4.189768732E-1,-8.987347782E-2
3.657901620E1,6.734020710E-1,-2.464075834E-1,-1.756236190E-3
3.659847713E1,7.830522656E-1,-8.819360286E-2,8.620829135E-2
3.661793807E1,8.247438073E-1,4.482220486E-2,1.098793000E-1
3.663739890E1,8.452077508E-1,7.796161622E-2,8.345939964E-2
3.665685984E1,8.146645427E-1,6.872228696E-4,9.414953738E-2
3.667632078E1,7.517454624E-1,-8.468113095E-2,1.185841262E-1
3.669578161E1,6.784417033E-1,-1.056032479E-1,1.251509190E-1
3.671524255E1,6.097193956E-1,-6.253728271E-2,1.773798615E-1
3.673470349E1,5.141190886E-1,2.955058403E-2,2.490037531E-1
3.675416442E1,3.636936247E-1,8.239039034E-2,2.952767611E-1
3.677362526E1,2.176969349E-1,1.356883347E-1,2.914588451E-1
3.679308620E1,1.187368408E-1,1.880699992E-1,2.650389671E-1
3.681254713E1,7.322741300E-2,1.911243200E-1,2.334267050E-1
3.683200807E1,4.909825698E-2,1.715766490E-1,1.929569095E-1
3.685146890E1,1.656970754E-2,1.688277572E-1,1.466839015E-1
3.687092984E1,-1.901316643E-2,1.767689884E-1,9.537126124E-2
3.689039078E1,-3.840812296E-2,1.692859083E-1,3.611737862E-2
3.690985161E1,-1.580612548E-2,1.086575761E-1,-2.466366626E-2
3.692931255E1,4.711294547E-2,4.741837829E-2,-6.635518372E-2
3.694877349E1,1.010217592E-1,5.093085021E-2,-1.068249792E-1
3.696823443E1,1.227074638E-1,1.126281917E-1,-1.700494885E-1
3.698769526E1,1.106428802E-1,1.873064190E-1,-2.528216541E-1
3.700715620E1,5.169443041E-2,2.201403975E-1,-3.464366794E-1
3.702661713E1,-3.199404106E-2,1.451567411E-1,-4.185187221E-1
3.704607807E1,3.550651670E-2,-3.107774630E-2,-3.623191714E-1
3.706553890E1,2.242637277E-1,-3.810269013E-2,-1.802814752E-1
3.708499984E1,2.961930633E-1,1.413388401E-1,1.336266659E-2
3.710446078E1,1.697440445E-1,3.948477209E-1,8.804088831E-2
3.712392172E1,-2.435823344E-2,5.483275056E-1,-5.345066893E-4
3.714338255E1,-1.718820781E-1,5.072468519E-1,-1.277471036E-1
3.716284349E1,-2.743546367E-1,3.264308572E-1,-1.947895139E-1
3.718230443E1,-3.331503868E-1,1.318704337E-1,-1.614973694E-1
3.720176536E1,-3.236819804E-1,-1.886045001E-2,-7.612902671E-2
3.722122620E1,-2.609156072E-1,-6.513345987E-2,-6.337722298E-3
3.724068713E1,-1.683696061E-1,-4.589121789E-2,-1.397353224E-2
3.726014807E1,-6.009382382E-2,-2.145662531E-2,-7.780890167E-2
3.727960901E1,2.832885459E-2,-7.628174126E-2,-1.052978188E-1
3.729906984E1,1.094211563E-1,-1.837939471E-1,-4.696023092E-2
3.731853078E1,1.688277572E-1,-2.244164497E-1,6.849320978E-2
3.733799172E1,1.793651730E-1,-1.321758628E-1,1.387426704E-1
3.735745265E1,1.393535286E-1,2.435823344E-2,1.220965981E-1
3.737691349E1,7.078395784E-2,1.329394430E-1,6.116283685E-2
3.739637443E1,1.908952487E-3,1.853211075E-1,6.872228696E-4
3.741583536E1,-5.505418777E-2,1.825722158E-1,-4.283689335E-2
3.743529630E1,-7.796161622E-2,1.089630052E-1,-4.436405376E-2
3.745475713E1,-5.154171586E-2,3.229947388E-2,-2.145662531E-2
3.747421807E1,1.534797717E-2,2.069304511E-2,-9.544761851E-3
3.749367901E1,6.528617442E-2,2.787070535E-2,-1.488982886E-2
3.751313994E1,8.345939964E-2,4.741837829E-2,-3.229947388E-2
3.753260088E1,7.246383280E-2,4.405862093E-2,-4.054614902E-2
3.755206172E1,4.848739132E-2,4.100430012E-2,-3.184132650E-2
3.757152265E1,4.573849961E-2,5.780307949E-2,-2.741255611E-2
3.759098359E1,4.757109284E-2,7.612902671E-2,-2.328922041E-2
3.761044453E1,3.199404106E-2,8.376483619E-2,-2.542724647E-2
3.762990536E1,1.259908639E-2,9.399681538E-2,-2.603811212E-2
3.764936630E1,1.275180187E-2,7.506000996E-2,-1.702785492E-2
3.766882724E1,3.123046272E-2,4.314232618E-2,-9.544761851E-3
3.768828818E1,3.917170316E-2,4.505127668E-3,-1.565340906E-2
3.770774911E1,2.405280061E-2,-2.298378758E-2,-2.695440874E-2
3.772720995E1,1.229365356E-2,-2.573267929E-2,-2.664897591E-2
3.774667088E1,1.305723470E-2,-4.810560029E-3,-1.091920771E-2
3.776613182E1,1.320995111E-2,2.466366626E-2,2.977965865E-3
3.778559276E1,2.069304511E-2,3.657552972E-2,-6.872228696E-4
3.780505359E1,4.314232618E-2,4.512763396E-2,-1.275180187E-2
3.782451453E1,5.978839099E-2,5.597048625E-2,-1.366809942E-2
3.784397547E1,6.421715766E-2,7.276926935E-2,-7.406735327E-3
3.786343640E1,8.819360286E-2,7.383827865E-2,-8.781181648E-3
3.788289734E1,1.375209391E-1,7.506000996E-2,-1.214093715E-2
3.790235818E1,1.789070219E-1,9.644027799E-2,-1.244636998E-2
3.792181911E1,1.796706021E-1,1.559995860E-1,-9.850194678E-3
3.794128005E1,1.708130687E-1,1.741728187E-1,-1.046105940E-2
3.796074099E1,1.506545246E-1,1.382845193E-1,-1.366809942E-2
3.798020192E1,1.017853469E-1,6.101011857E-2,-6.337722298E-3
3.799966276E1,6.284271181E-2,8.781181648E-3,-2.130390890E-2
3.801912370E1,5.062541738E-2,-4.634936526E-2,-3.672824427E-2
3.803858463E1,4.100430012E-2,-1.091157198E-1,-5.505418777E-2
3.805804557E1,-1.641699113E-2,-1.425605714E-1,-6.895136088E-2
3.807750640E1,-2.496909723E-2,-1.301905513E-1,-9.094249457E-2
3.809696734E1,3.779725730E-2,-1.351538301E-2,-1.181259751E-1
3.811642828E1,3.672824427E-2,1.220965981E-1,-1.156825200E-1
3.813588922E1,-2.359465137E-2,2.241110206E-1,-1.066722646E-1
3.815535015E1,-1.352301836E-1,2.383136153E-1,-8.926261961E-2
3.817481099E1,-2.473238707E-1,1.575267613E-1,-6.101011857E-2
3.819427192E1,-2.841284871E-1,8.743002266E-2,-2.283107117E-2
3.821373286E1,-2.059377879E-1,3.000873141E-2,3.031416424E-2
3.823319380E1,-1.117118970E-1,1.550069358E-2,9.460768104E-2
3.825265474E1,-8.804088831E-2,-6.872228696E-4,1.162933856E-1
3.827211557E1,-1.419496983E-1,-2.435823344E-2,7.841976732E-2
3.829157651E1,-1.715766490E-1,-6.299543381E-2,7.101302966E-3
3.831103745E1,-1.376736462E-1,-1.075885594E-1,-4.008800164E-2
3.833049838E1,-9.521854669E-2,-1.497382224E-1,-4.848739132E-2
3.834995932E1,-5.490147322E-2,-1.581376195E-1,-3.397935256E-2
3.836942026E1,-1.458439697E-2,-9.491311759E-2,-1.397353224E-2
3.838888109E1,1.015562657E-2,-2.069304511E-2,3.283398226E-3
3.840834203E1,2.344193682E-2,1.183550525E-2,8.475748822E-3
3.842780297E1,4.940368980E-2,4.963276442E-3,1.290451828E-2
3.844726390E1,6.146826968E-2,3.443750367E-2,1.305723470E-2
3.846672484E1,3.932442144E-2,4.360047355E-2,1.595884189E-2
3.848618578E1,2.069304511E-2,6.940951198E-2,1.718057133E-2
3.850564661E1,3.489565104E-2,8.620829135E-2,2.649625950E-2
3.852510755E1,5.520690605E-2,7.628174126E-2,2.313650399E-2
3.854456849E1,4.848739132E-2,8.972076327E-2,3.894262947E-3
3.856402942E1,2.519817324E-3,6.528617442E-2,-2.160934173E-2
3.858349036E1,-1.382081583E-2,1.931859925E-2,-4.741837829E-2
3.860295120E1,3.031416424E-2,-3.413207084E-2,-4.466948658E-2
3.862241213E1,1.010217592E-1,-1.439350098E-1,-2.160934173E-2
3.864187307E1,1.289688200E-1,-2.244164497E-1,-7.254019380E-3
3.866133401E1,1.187368408E-1,-1.954003721E-1,-2.985601686E-2
3.868079494E1,1.075885594E-1,-1.379790753E-1,-5.108356848E-2
3.870025588E1,1.253036410E-1,-1.107956022E-1,-4.054614902E-2
3.871971672E1,1.338557452E-1,-1.112537459E-1,-1.840230078E-2
