"Time (s)","Acceleration x (m/s^2)","Acceleration y (m/s^2)","Acceleration z (m/s^2)"
3.188928300E-2,1.021854877E1,3.750749528E-1,-2.027917206E-1
5.134990800E-2,1.005105114E1,7.154539824E-1,-2.638086975E-1
7.081053300E-2,9.851848602E0,9.840483069E-1,-1.124626622E-1
9.027126200E-2,9.646066666E0,1.019342422E0,1.441675574E-1
1.097318870E-1,9.582656860E0,8.590233326E-1,3.750749528E-1
1.291925120E-1,9.654440880E0,6.161518097E-1,4.983053207E-1
1.486531370E-1,9.801001549E0,3.535395563E-1,4.713860750E-1
1.681138670E-1,9.922437668E0,1.818545163E-1,3.571287692E-1
1.875744920E-1,9.943972588E0,2.129612118E-1,2.662015259E-1
2.070351170E-1,9.981659889E0,3.672982752E-1,3.056831062E-1
2.264957420E-1,9.996614456E0,5.653043389E-1,3.445664644E-1
2.459564710E-1,9.875179291E0,6.556333899E-1,3.571287692E-1
2.654170960E-1,9.789037704E0,6.765705943E-1,3.397808075E-1
2.848777210E-1,9.793225288E0,5.796613097E-1,3.559323549E-1
3.043383460E-1,9.891928673E0,3.816552162E-1,3.110669553E-1
3.237990750E-1,1.017488003E1,1.866401732E-1,1.178465188E-1
3.432597000E-1,1.038664532E1,1.328016520E-1,-1.818545163E-1
3.627203250E-1,1.037886810E1,2.374876440E-1,-2.560320199E-1
3.821809500E-1,1.025623608E1,3.864408433E-1,-1.740778536E-1
4.016416790E-1,1.009711361E1,4.468596280E-1,-2.452643216E-2
4.211023040E-1,9.869196892E0,4.953143001E-1,4.187439755E-2
4.405629290E-1,9.667601585E0,5.545366406E-1,9.332008660E-2
4.600235540E-1,9.546165466E0,5.509474277E-1,1.842473447E-1
4.794842830E-1,9.437292099E0,4.701896608E-1,2.560320199E-1
4.989449080E-1,9.419346809E0,2.739782035E-1,3.649054468E-1
5.184055330E-1,9.535996437E0,1.088734269E-1,4.456632137E-1
5.378662620E-1,9.683753014E0,1.495514158E-2,4.378865361E-1
5.573268870E-1,9.778269768E0,-3.589233849E-3,2.333002090E-1
5.767875120E-1,9.865608215E0,1.417747438E-1,1.142572835E-1
5.962481370E-1,9.924231529E0,3.906283081E-1,1.465603858E-1
6.157088670E-1,9.891928673E0,5.443671346E-1,2.321037948E-1
6.351694920E-1,9.801001549E0,5.294120312E-1,2.679961324E-1
6.546301170E-1,9.796813965E0,4.588237405E-1,3.314059377E-1
6.740907420E-1,9.806385040E0,3.684946895E-1,3.996013701E-1
6.935514710E-1,9.742975235E0,2.578266263E-1,4.360919297E-1
7.130120960E-1,9.721440315E0,9.391828626E-2,4.157529473E-1
7.324727210E-1,9.782457352E0,1.076770201E-2,3.684946895E-1
7.519333460E-1,9.906884193E0,1.016949639E-1,3.655036688E-1
7.713940750E-1,9.981060982E0,2.428714931E-1,4.121637046E-1
7.908547000E-1,9.927223206E0,2.865405083E-1,3.678964674E-1
8.103153250E-1,9.846465111E0,1.998006850E-1,2.578266263E-1
8.297759500E-1,9.786046028E0,8.614161611E-2,2.249253243E-1
8.492366790E-1,9.737591743E0,2.213360928E-2,2.991028428E-1
8.686973040E-1,9.718449593E0,-3.529413417E-2,3.804588020E-1
8.881579290E-1,9.698708534E0,-5.084748194E-2,4.325026870E-1
9.076185540E-1,9.644869804E0,-1.256231871E-2,4.378865361E-1
9.270792830E-1,9.604789734E0,4.965107143E-2,3.756731451E-1
9.465399080E-1,9.655637741E0,2.452643216E-2,3.080759048E-1
9.660005330E-1,9.742377281E0,-1.196411327E-1,2.697907388E-1
9.854611580E-1,9.819545746E0,-2.279163599E-1,2.344966233E-1
1.004921783E0,9.803394318E0,-2.117647976E-1,2.392822653E-1
1.024382512E0,9.740582466E0,-1.417747438E-1,3.182454109E-1
1.043843137E0,9.705288887E0,-1.860419661E-1,4.025924206E-1
1.063303762E0,9.787840843E0,-3.804588020E-1,3.900300860E-1
1.082764492E0,9.902696609E0,-4.989035130E-1,3.487538993E-1
1.102225117E0,9.910472870E0,-4.875376225E-1,3.936193287E-1
1.121685742E0,9.820742607E0,-3.876372576E-1,4.540380836E-1
1.141146367E0,9.784252167E0,-3.643072546E-1,4.109672904E-1
1.160606992E0,9.805787086E0,-3.924229145E-1,2.973082066E-1
1.180067721E0,9.849455833E0,-4.354937077E-1,3.074777126E-1
1.199528346E0,9.814760208E0,-5.066801906E-1,3.828516304E-1
1.218988971E0,9.805189133E0,-6.113662124E-1,3.355933726E-1
1.238449596E0,9.897911072E0,-7.944171429E-1,2.231307179E-1
1.257910325E0,9.994221687E0,-8.147560954E-1,2.554338276E-1
1.277370950E0,1.005404282E1,-5.682953596E-1,3.852444589E-1
1.296831575E0,1.015214825E1,-2.709871531E-1,5.072783828E-1
1.316292200E0,1.023470020E1,-1.357926875E-1,4.486542344E-1
1.335752929E0,1.035793114E1,-2.237289101E-1,2.333002090E-1
1.355213554E0,1.041117096E1,-4.097708762E-1,1.130608693E-1
1.374674179E0,1.023230743E1,-5.569294691E-1,1.286142170E-1
1.394134804E0,9.935597420E0,-7.022934556E-1,2.602194548E-1
1.413595429E0,9.635298729E0,-8.045865893E-1,3.571287692E-1
1.433056158E0,9.485747337E0,-8.255237937E-1,3.559323549E-1
1.452516783E0,9.592825890E0,-7.704889178E-1,2.997010350E-1
1.471977408E0,9.738189697E0,-6.592226624E-1,2.099701911E-1
1.491438033E0,9.850652695E0,-5.186443329E-1,8.434699476E-2
1.510898762E0,1.004626560E1,-2.440679073E-1,-5.982056726E-3
1.530359387E0,1.029870892E1,4.007977992E-2,-1.459621787E-1
1.549820012E0,1.038305569E1,-9.451649338E-2,-2.805584669E-1
1.569280637E0,1.018983555E1,-4.749752879E-1,-3.373879790E-1
1.588741262E0,9.881759644E0,-7.082754970E-1,-3.900300860E-1
1.608201992E0,9.728020668E0,-5.742774606E-1,-3.816552162E-1
1.627662617E0,9.681360245E0,-1.680957973E-1,-3.152543902E-1
1.647123242E0,9.671789169E0,3.212364316E-1,-3.056831062E-1
1.666583867E0,9.727422714E0,5.694918036E-1,-3.188436031E-1
1.686044596E0,9.778867722E0,5.856433511E-1,-3.541377485E-1
1.705505221E0,9.823733330E0,4.803591371E-1,-4.121637046E-1
1.724965846E0,9.859027863E0,2.662015259E-1,-4.402793646E-1
1.744426471E0,9.874580383E0,-8.374879137E-3,-3.948157430E-1
1.763887096E0,9.835099220E0,-1.842473447E-1,-4.067798555E-1
1.783347825E0,9.822537422E0,-2.823530734E-1,-4.360919297E-1
1.802808450E0,9.783055305E0,-2.739782035E-1,-4.600201547E-1
1.822269075E0,9.771689415E0,-9.391828626E-2,-4.600201547E-1
1.841729700E0,9.854242325E0,2.548356056E-1,-3.230310678E-1
1.861190325E0,9.915857315E0,5.922235847E-1,-1.633101404E-1
1.880651054E0,9.831509590E0,7.507480979E-1,-1.076770201E-1
1.900111679E0,9.679565430E0,6.873382926E-1,-1.333998591E-1
1.919572304E0,9.589237213E0,4.839483798E-1,-1.782652885E-1
1.939032929E0,9.651450157E0,2.847459018E-1,-2.787638307E-1
1.958493554E0,9.819545746E0,2.494517565E-1,-3.894318938E-1
1.977954283E0,9.945767403E0,3.403790295E-1,-4.941178858E-1
1.997414908E0,9.908080101E0,4.187439680E-1,-5.300102234E-1
2.016875533E0,9.844072342E0,4.133601189E-1,-4.701896608E-1
2.036336158E0,9.884152412E0,2.829512656E-1,-3.224328458E-1
2.055796783E0,9.993623734E0,1.483550072E-1,-1.824527234E-1
2.075257512E0,1.006361389E1,6.759724021E-2,-1.459621787E-1
2.094718137E0,1.002173901E1,1.250249892E-1,-1.692921966E-1
2.114178762E0,9.925428391E0,2.662015259E-1,-1.908276081E-1
2.133639387E0,9.855438232E0,4.109672904E-1,-1.722832322E-1
2.153100012E0,9.917053223E0,4.821537733E-1,-1.010967568E-1
2.172560742E0,1.005165005E1,4.540380836E-1,-1.070788130E-1
2.192021367E0,1.002114105E1,3.996013701E-1,-1.453639716E-1
2.211481992E0,9.808179855E0,2.267199457E-1,-1.328016520E-1
2.230942617E0,9.614959717E0,2.033899166E-2,-3.828516230E-2
2.250403242E0,9.562317848E0,6.580262445E-3,9.631111473E-2
2.269863867E0,9.661619186E0,8.673982322E-2,1.262213886E-1
2.289324596E0,9.773484230E0,1.716850251E-1,-1.256231871E-2
2.308785221E0,9.819545746E0,2.560320199E-1,-1.351944804E-1
2.328245846E0,9.897911072E0,3.577269912E-1,-1.064806059E-1
2.347706471E0,9.930213928E0,4.319044948E-1,-9.750752151E-2
2.367167096E0,9.884750366E0,4.755735099E-1,-1.561316848E-1
2.386627721E0,9.853045464E0,4.271188378E-1,-1.710868180E-1
2.406088450E0,9.799206734E0,3.798605800E-1,-1.094716340E-1
2.425549075E0,9.716654778E0,3.056831062E-1,6.580262445E-3
2.445009700E0,9.684949875E0,2.003988922E-1,3.050848842E-2
2.464470325E0,9.820143700E0,1.770688742E-1,-8.973085135E-2
2.483930950E0,1.005284595E1,2.309073806E-1,-2.356930375E-1
2.503391575E0,1.006839943E1,2.925225794E-1,-2.907279432E-1
2.522852304E0,9.989436150E0,2.542374134E-1,-2.386840582E-1
2.542312929E0,9.900901794E0,1.489532143E-1,-7.956135273E-2
2.561773554E0,9.856635094E0,1.381855011E-1,1.196411345E-2
2.581234179E0,9.811170578E0,1.728814393E-1,2.333002165E-2
2.600694804E0,9.783055305E0,2.153540403E-1,-6.101697683E-2
2.620155533E0,9.776474953E0,2.321037948E-1,-1.387837082E-1
2.639616158E0,9.833903313E0,1.974078715E-1,-1.322034448E-1
2.659076783E0,9.888937950E0,1.579262912E-1,-8.195417374E-2
2.678537408E0,9.893723488E0,1.561316848E-1,-5.802594870E-2
2.697998033E0,9.868598938E0,1.680957973E-1,-7.298108935E-2
2.717458658E0,9.884152412E0,2.470589429E-1,-9.092725813E-2
2.736919283E0,9.909276962E0,3.152543902E-1,-1.333998591E-1
2.756380012E0,9.906884193E0,2.656033039E-1,-2.315055877E-1
2.775840637E0,9.896116257E0,1.908276081E-1,-2.141576260E-1
2.795301262E0,9.845269203E0,1.645065546E-1,-5.802594870E-2
2.814761887E0,9.806385040E0,1.794617027E-1,2.033899166E-2
2.834222512E0,9.719645500E0,2.255235314E-1,5.982056726E-3
2.853683137E0,9.693922997E0,2.303091735E-1,-4.606183618E-2
2.873143867E0,9.746564865E0,1.603191197E-1,-7.776673883E-2
2.892604492E0,9.862616539E0,6.161518395E-2,-9.810572863E-2
2.912065117E0,9.932606697E0,1.615155302E-2,-8.733802289E-2
2.931525742E0,9.927821159E0,4.187439568E-3,-3.708875179E-2
2.950986367E0,9.892526627E0,1.028913707E-1,3.888336942E-2
2.970446992E0,9.821340561E0,2.027917206E-1,9.511470050E-2
2.989907617E0,9.856635094E0,2.470589429E-1,1.064806059E-1
3.009368346E0,9.925428391E0,2.374876440E-1,3.589233849E-3
3.028828971E0,9.944570541E0,1.782652885E-1,-7.836493850E-2
3.048289596E0,9.868598938E0,2.033899277E-1,-3.529413417E-2
3.067750221E0,9.805787086E0,1.710868180E-1,1.160518974E-1
3.087210846E0,9.789635658E0,1.884347796E-1,2.470589429E-1
3.106671471E0,9.819545746E0,2.141576260E-1,2.309073806E-1
3.126132096E0,9.807581902E0,2.147558331E-1,1.860419661E-1
3.145592825E0,9.748359680E0,2.003988922E-1,2.081755698E-1
3.165053450E0,9.759127617E0,1.848455518E-1,1.968096644E-1
3.184514075E0,9.800403595E0,1.746760458E-1,1.250249892E-1
3.203974700E0,9.757930756E0,2.243271172E-1,1.190429255E-1
3.223435325E0,9.708279610E0,2.841476798E-1,1.992024779E-1
3.242895950E0,9.757332802E0,2.925225794E-1,3.212364316E-1
3.262356679E0,9.815358162E0,2.865405083E-1,4.725824594E-1
3.281817304E0,9.815358162E0,2.530409992E-1,5.288137794E-1
3.301277929E0,9.890732765E0,2.243271172E-1,4.827519655E-1
3.320738554E0,9.945767403E0,2.763710022E-1,2.721835673E-1
3.340199179E0,9.902098656E0,2.673979402E-1,-1.794616925E-3
3.359659804E0,9.923633575E0,1.627119333E-1,-1.004985496E-1
3.379120429E0,9.993025780E0,1.872383654E-1,-6.400800496E-2
3.398581158E0,1.002712345E1,2.338984162E-1,-1.854437590E-2
3.418041783E0,9.997811317E0,2.338984162E-1,1.196411345E-2
3.437502408E0,9.933204651E0,1.740778536E-1,6.281159073E-2
3.456963033E0,9.891330719E0,1.543370634E-1,1.166501045E-1
3.476423658E0,9.848857880E0,1.746760458E-1,1.238285750E-1
3.495884283E0,9.836894035E0,2.273181528E-1,8.135596663E-2
3.515345012E0,9.869794846E0,2.488535494E-1,5.862415582E-2
3.534805637E0,9.920642853E0,2.051845491E-1,1.794616925E-3
3.554266262E0,9.931410789E0,1.770688742E-1,-2.213360928E-2
3.573726887E0,9.957731247E0,1.842473447E-1,2.033899166E-2
3.593187512E0,9.962516785E0,2.159522474E-1,7.537391037E-2
3.612648137E0,9.938589096E0,2.189432681E-1,9.810572863E-2
3.632108762E0,9.906285286E0,1.824527234E-1,9.451649338E-2
3.651569492E0,9.914660454E0,1.639083475E-1,6.640082598E-2
3.671030117E0,9.881160736E0,1.854437590E-1,9.391828626E-2
3.690490742E0,9.863813400E0,1.872383654E-1,1.286142170E-1
3.709951367E0,9.859625816E0,1.555334777E-1,2.267199457E-1
3.729411992E0,9.818349838E0,1.375873089E-1,3.667000830E-1
3.748872617E0,9.773484230E0,1.429711580E-1,4.067798555E-1
3.768333242E0,9.792626381E0,1.543370634E-1,3.092723191E-1
3.787793971E0,9.897911072E0,1.663011760E-1,-1.555334684E-2
3.807254596E0,9.936794281E0,1.046859920E-1,-2.075773627E-1
3.826715221E0,9.940383911E0,1.142572835E-1,-1.322034448E-1
3.846175846E0,9.961918831E0,2.111666054E-1,8.315058798E-2
3.865636471E0,9.876375198E0,2.955136001E-1,2.667997181E-1
3.885097096E0,9.723833084E0,3.068794906E-1,3.104687333E-1
3.904557721E0,9.644271851E0,2.356930375E-1,2.458625287E-1
3.924018450E0,9.732208252E0,1.824527234E-1,1.854437590E-1
3.943479075E0,9.847063065E0,1.818545163E-1,1.657029688E-1
3.962939700E0,9.917651176E0,1.716850251E-1,1.866401732E-1
3.982400325E0,9.934401512E0,1.686939895E-1,2.141576260E-1
4.001860950E0,9.875777245E0,1.555334777E-1,2.285145670E-1
4.021321575E0,9.849455833E0,1.328016520E-1,2.069791555E-1
4.040782304E0,9.841081619E0,1.220339537E-1,2.667997181E-1
4.060242929E0,9.855438232E0,1.328016520E-1,3.254238665E-1
4.079703554E0,9.848259926E0,1.292124242E-1,3.439682424E-1
4.099164179E0,9.748957634E0,1.651047617E-1,2.835494876E-1
4.118624804E0,9.791430473E0,1.704886109E-1,2.087737769E-1
4.138085429E0,9.927223206E0,1.639083475E-1,2.512463629E-1
4.157546054E0,1.000917721E1,1.633101404E-1,2.440679073E-1
4.177006783E0,9.994221687E0,1.172483116E-1,2.159522474E-1
4.196467408E0,9.885348320E0,9.631111473E-2,2.315055877E-1
4.215928033E0,9.800403595E0,1.220339537E-1,2.632105052E-1
4.235388658E0,9.732208252E0,1.680957973E-1,3.254238665E-1
4.254849283E0,9.712467194E0,2.201396823E-1,3.379862010E-1
4.274309908E0,9.771689415E0,2.297109663E-1,3.349951804E-1
4.293770533E0,9.864411354E0,2.530409992E-1,2.883351147E-1
4.313231262E0,9.908679008E0,2.321037948E-1,2.039881349E-1
4.332691887E0,9.884750366E0,1.710868180E-1,1.860419661E-1
4.352152512E0,9.885947227E0,1.220339537E-1,2.159522474E-1
4.371613137E0,9.890133858E0,1.118644550E-1,2.554338276E-1
4.391073762E0,9.826126099E0,1.704886109E-1,2.823530734E-1
4.410534387E0,9.815957069E0,2.141576260E-1,2.835494876E-1
4.429995012E0,9.815358162E0,2.081755698E-1,3.074777126E-1
4.449455742E0,9.798010826E0,1.884347796E-1,3.248256743E-1
4.468916367E0,9.793225288E0,1.459621787E-1,3.272185028E-1
4.488376992E0,9.809376717E0,1.591227055E-1,3.200400174E-1
4.507837617E0,9.835697174E0,1.866401732E-1,3.260220885E-1
4.527298242E0,9.905089378E0,2.183450609E-1,2.638086975E-1
4.546758867E0,9.946963310E0,1.914258152E-1,1.764706671E-1
4.566219492E0,9.899705887E0,1.764706671E-1,1.076770201E-1
4.585680117E0,9.863214493E0,1.663011760E-1,8.195417374E-2
4.605140846E0,9.896116257E0,1.597209126E-1,9.332008660E-2
4.624601471E0,9.885947227E0,1.980060786E-1,1.567298770E-1
4.644062096E0,9.802198410E0,2.153540403E-1,1.878365725E-1
4.663522721E0,9.757930756E0,1.902294010E-1,2.057827413E-1
4.682983346E0,9.809974670E0,1.830509305E-1,1.704886109E-1
4.702443971E0,9.910472870E0,1.896311939E-1,9.451649338E-2
4.721904596E0,9.905687332E0,1.890329868E-1,5.982056609E-4
4.741365221E0,9.933803558E0,1.884347796E-1,-7.178467698E-3
4.760825950E0,9.967302322E0,1.872383654E-1,3.409772366E-2
4.780286575E0,9.962516785E0,2.045863420E-1,9.212367237E-2
4.799747200E0,9.902098656E0,1.776670814E-1,4.007977992E-2
4.819207825E0,9.829116821E0,1.794617027E-1,-8.973085321E-3
4.838668450E0,9.819545746E0,1.740778536E-1,-2.991028316E-2
4.858129075E0,9.857233047E0,1.716850251E-1,1.794616925E-3
4.877589700E0,9.873982430E0,1.657029688E-1,5.324030295E-2
4.897050325E0,9.854242325E0,1.674975902E-1,5.024927482E-2
4.916511054E0,9.854840279E0,1.232303679E-1,2.991028316E-2
4.935971679E0,9.868000984E0,1.040877849E-1,2.991028363E-3
4.955432304E0,9.882357597E0,1.046859920E-1,-1.854437590E-2
4.974892929E0,9.923633575E0,1.232303679E-1,-1.615155302E-2
4.994353554E0,9.960124016E0,1.489532143E-1,-1.974078640E-2
5.013814179E0,9.954142570E0,1.728814393E-1,-3.768695518E-2
5.033274804E0,9.927821159E0,1.710868180E-1,-6.580262631E-2
5.052735533E0,9.923035622E0,1.477568001E-1,-1.202393398E-1
5.072196158E0,9.970891953E0,1.441675574E-1,-2.093719840E-1
5.091656783E0,9.975677490E0,1.501496136E-1,-1.453639716E-1
5.111117408E0,9.872786522E0,1.202393398E-1,1.824527234E-1
5.130578033E0,9.763314247E0,1.489532143E-1,4.881358147E-1
5.150038658E0,9.729815483E0,1.645065546E-1,4.971089065E-1
5.169499283E0,9.730413437E0,9.750752151E-2,2.608176768E-1
5.188959908E0,9.794421196E0,1.118644550E-1,1.196411322E-3
5.208420533E0,9.805787086E0,1.722832322E-1,-1.304088384E-1
5.227881262E0,9.854242325E0,2.291127741E-1,-1.878365725E-1
5.247341887E0,9.970891953E0,2.201396823E-1,-2.003988922E-1
5.266802512E0,1.003609657E1,1.704886109E-1,-1.932204217E-1
5.286263137E0,1.004327488E1,1.465603858E-1,-1.585244983E-1
5.305723762E0,9.994221687E0,1.399801224E-1,-1.339980662E-1
5.325184387E0,9.914660454E0,1.292124242E-1,-1.333998591E-1
5.344645012E0,9.820143700E0,1.357926875E-1,-1.058823988E-1
5.364105637E0,9.769894600E0,1.489532143E-1,-7.956135273E-2
5.383566262E0,9.746564865E0,1.633101404E-1,-5.802594870E-2
5.403026992E0,9.744172096E0,1.351944804E-1,-3.349951655E-2
5.422487617E0,9.819545746E0,7.836493850E-2,-7.716853172E-2
5.441948242E0,9.906285286E0,4.486542568E-2,-1.333998591E-1
5.461408867E0,9.928419113E0,1.028913707E-1,-8.973085135E-2
5.480869492E0,9.930213928E0,1.519442350E-1,-1.316052489E-2
5.500330117E0,9.917053223E0,1.585244983E-1,3.170489892E-2
5.519790742E0,9.853045464E0,1.369891018E-1,4.666004330E-2
5.539251367E0,9.823135376E0,1.196411327E-1,-4.067798331E-2
5.558711992E0,9.811170578E0,1.381855011E-1,-6.281159073E-2
5.578172617E0,9.899106979E0,1.405783296E-1,-3.349951655E-2
5.597633346E0,9.972686768E0,1.118644550E-1,1.076770201E-2
5.617093971E0,9.943374634E0,1.046859920E-1,4.426721856E-2
5.636554596E0,9.864411354E0,8.195417374E-2,1.052841991E-1
5.656015221E0,9.794421196E0,4.666004330E-2,1.573280841E-1
5.675475846E0,9.820143700E0,-4.785645287E-3,1.591227055E-1
5.694936471E0,9.850652695E0,-1.914258115E-2,1.244267747E-1
5.714397096E0,9.872786522E0,6.340979785E-2,8.793623000E-2
5.733857721E0,9.899106979E0,1.088734269E-1,6.101697683E-2
5.753318346E0,9.897911072E0,1.405783296E-1,6.041877344E-2
5.772778971E0,9.859027863E0,9.990034252E-2,1.172483116E-1
5.792239700E0,9.810572624E0,6.759724021E-2,2.033899277E-1
5.811700325E0,9.769894600E0,5.144568533E-2,1.525424421E-1
5.831160950E0,9.807581902E0,1.794616925E-3,6.221338734E-2
5.850621575E0,9.943972588E0,5.443671346E-2,-3.230310604E-2
5.870082200E0,9.991230965E0,1.088734269E-1,-5.144568533E-2
5.889542825E0,9.911071777E0,8.973085135E-2,-5.144568533E-2
5.909003450E0,9.839884758E0,7.058826834E-2,-5.802594870E-2
5.928464075E0,9.823135376E0,1.004985496E-1,-1.674975827E-2
5.947924700E0,9.760921478E0,1.238285750E-1,1.674975827E-2
5.967385325E0,9.702896118E0,1.489532143E-1,-5.982056633E-2
5.986846054E0,9.768698692E0,7.178468257E-2,-7.298108935E-2
6.006306679E0,9.940981865E0,4.845465720E-2,-1.573280841E-1
6.025767304E0,9.991230965E0,-2.991028363E-3,-1.860419661E-1
6.045227929E0,9.923035622E0,2.632104978E-2,-1.028913707E-1
6.064688554E0,9.778867722E0,1.920240223E-1,-5.324030295E-2
6.084149179E0,9.617950439E0,3.044866920E-1,-8.793623000E-2
6.103609804E0,9.588040352E0,3.547359705E-1,-1.519442350E-1
6.123070429E0,9.710074425E0,3.218346536E-1,-2.147558331E-1
6.142531054E0,9.848259926E0,2.530409992E-1,-2.859423161E-1
6.161991679E0,9.895518303E0,2.614158690E-1,-2.614158690E-1
6.181452408E0,9.981659889E0,3.427718580E-1,-2.853440940E-1
6.200913033E0,9.969097137E0,3.714857101E-1,-2.793620527E-1
6.220373658E0,9.984650612E0,4.307080805E-1,-2.566302419E-1
6.239834283E0,9.973284721E0,5.120640397E-1,-1.519442350E-1
6.259294908E0,9.888937950E0,4.546363056E-1,-3.469592705E-2
6.278755533E0,9.798010826E0,3.804588020E-1,-5.682953820E-2
6.298216158E0,9.752547264E0,2.769692242E-1,-6.400800496E-2
6.317676783E0,9.799206734E0,2.159522474E-1,-3.290131316E-2
6.337137408E0,9.915258408E0,2.171486616E-1,5.742774159E-2
6.356598033E0,9.888339996E0,1.178465188E-1,1.040877849E-1
6.376058658E0,9.807581902E0,5.324030295E-2,3.409772366E-2
6.395519387E0,9.571888924E0,3.409772366E-2,5.324030295E-2
6.414980012E0,9.352347374E0,6.041877344E-2,1.824527234E-1
6.434440637E0,9.319445610E0,1.501496136E-1,3.379862010E-1
6.453901262E0,9.557532310E0,2.452643216E-1,4.504488707E-1
6.473361887E0,9.905089378E0,1.734796464E-1,3.302095234E-1
6.492822512E0,1.001994514E1,-3.290131316E-2,2.404786795E-1
6.512283137E0,9.833903313E0,-1.585244983E-1,3.014956415E-1
6.531743762E0,9.590433121E0,-1.010967568E-1,3.619144261E-1
6.551204387E0,9.594022751E0,6.520441920E-2,2.691925466E-1
6.570665012E0,9.774082184E0,2.835494876E-1,2.117647976E-1
6.590125637E0,1.002712345E1,4.145565331E-1,2.644068897E-1
6.609586367E0,1.018086243E1,4.187439680E-1,3.595215976E-1
6.629046992E0,1.020598698E1,4.133601189E-1,4.516452849E-1
6.648507617E0,1.020778179E1,3.900300860E-1,4.384847581E-1
6.667968242E0,1.018863869E1,3.750749528E-1,3.182454109E-1
6.687428867E0,1.017966557E1,3.906283081E-1,2.333002090E-1
6.706889492E0,1.014556789E1,4.983053207E-1,2.943171859E-1
6.726350117E0,1.003190899E1,5.820540786E-1,4.707878530E-1
6.745810742E0,9.856635094E0,5.760720372E-1,6.442674994E-1
6.765271367E0,9.775279045E0,5.054838061E-1,7.710871100E-1
6.784731992E0,9.890732765E0,5.180460811E-1,8.386843204E-1
6.804192721E0,1.000977516E1,6.580262184E-1,8.015955687E-1
6.823653346E0,1.004327488E1,8.087740541E-1,6.155536175E-1
6.843113971E0,9.896116257E0,8.715856671E-1,4.019941986E-1
6.862574596E0,9.689137459E0,9.056833982E-1,2.973082066E-1
6.882035221E0,9.544969559E0,8.799605370E-1,2.536391914E-1
6.901495846E0,9.469595909E0,7.812566161E-1,3.074777126E-1
6.920956471E0,9.463015556E0,7.298108935E-1,3.834498227E-1
6.940417096E0,9.646664619E0,7.166503668E-1,2.835494876E-1
6.959877721E0,9.863813400E0,6.538388133E-1,1.082752272E-1
6.979338346E0,9.947562218E0,5.569294691E-1,3.649054468E-2
6.998798971E0,9.893723488E0,5.557330847E-1,1.369891018E-1
7.018259700E0,9.906285286E0,6.945167780E-1,3.260220885E-1
7.037720325E0,9.949954987E0,8.213363886E-1,4.169493318E-1
7.057180950E0,1.006301594E1,8.500502706E-1,2.895315289E-1
7.076641575E0,1.022034359E1,8.500502706E-1,-7.178468257E-2
7.096102200E0,1.032742214E1,8.057830334E-1,-4.516452849E-1
7.115562825E0,1.034836006E1,8.171489239E-1,-6.000002623E-1
7.135023450E0,1.020120144E1,7.202396393E-1,-4.887340367E-1
7.154484075E0,9.946963310E0,5.258227587E-1,-2.739782035E-1
7.173944700E0,9.640682220E0,3.822534084E-1,-4.606183618E-2
7.193405325E0,9.437292099E0,3.302095234E-1,1.280160099E-1
7.212865950E0,9.495916367E0,4.468596280E-1,7.238288224E-2
7.232326575E0,9.746564865E0,5.826523304E-1,-2.404786795E-1
7.251787304E0,9.945169449E0,6.574280262E-1,-5.994020700E-1
7.271247929E0,9.943374634E0,6.640082598E-1,-8.231309652E-1
7.290708554E0,9.823733330E0,5.575276613E-1,-8.039883971E-1
7.310169179E0,9.698708534E0,4.642075896E-1,-6.263213158E-1
7.329629804E0,9.656235695E0,4.187439680E-1,-4.558327198E-1
7.349090429E0,9.644271851E0,4.827519655E-1,-3.774677813E-1
7.368551054E0,9.624530792E0,5.018945336E-1,-3.649054468E-1
7.388011679E0,9.726823807E0,4.606183469E-1,-4.516452849E-1
7.407472304E0,9.820143700E0,4.486542344E-1,-5.407779217E-1
7.426932929E0,9.826126099E0,3.978067636E-1,-4.773681164E-1
7.446393554E0,9.894321442E0,2.386840582E-1,-3.852444589E-1
7.465854179E0,9.954740524E0,1.034895778E-1,-2.937189937E-1
7.485314804E0,9.954142570E0,8.374879137E-3,-2.111666054E-1
7.504775533E0,9.847063065E0,-5.204389244E-2,-1.645065546E-1
7.524236158E0,9.764511108E0,-1.070788130E-1,-2.141576260E-1
7.543696783E0,9.748359680E0,-4.725824669E-2,-2.608176768E-1
7.563157408E0,9.829715729E0,1.914258152E-1,-2.835494876E-1
7.582618033E0,9.857831001E0,4.576273263E-1,-3.463610709E-1
7.602078658E0,9.873384476E0,5.533402562E-1,-4.791627228E-1
7.621539283E0,9.811769485E0,5.473581553E-1,-6.065805554E-1
7.640999908E0,9.766903877E0,5.437689424E-1,-6.095715761E-1
7.660460533E0,9.822537422E0,4.791627228E-1,-4.354937077E-1
7.679921158E0,9.911071777E0,2.464607358E-1,-1.704886109E-1
7.699381783E0,9.951150894E0,-1.375873014E-2,-5.383851007E-2
7.718842408E0,9.894919395E0,-1.411765367E-1,-8.494520187E-2
7.738303033E0,9.813564301E0,-3.828516230E-2,-1.226321608E-1
7.757763658E0,9.776474953E0,1.860419661E-1,-5.623133108E-2
7.777224387E0,9.748957634E0,3.738785386E-1,4.426721856E-2
7.796685012E0,9.745966911E0,4.055834413E-1,1.130608693E-1
7.816145637E0,9.772287369E0,3.128615618E-1,1.094716340E-1
7.835606262E0,9.778867722E0,2.003988922E-1,8.015955985E-2
7.855066887E0,9.888937950E0,1.304088384E-1,-3.529413417E-2
7.874527512E0,1.002712345E1,1.441675574E-1,-2.524427772E-1
7.893988137E0,1.007019424E1,1.956132501E-1,-3.786641955E-1
7.913448762E0,1.003968525E1,2.590230405E-1,-4.211367965E-1
7.932909387E0,1.004028416E1,3.948157430E-1,-3.541377485E-1
7.952370012E0,1.002831936E1,5.557330847E-1,-2.805584669E-1
7.971830637E0,9.931410789E0,6.568298340E-1,-2.303091735E-1
7.991291262E0,9.822537422E0,6.251249313E-1,-2.207378894E-1
8.010751887E0,9.750154495E0,4.366901219E-1,-2.075773627E-1
8.030212512E0,9.661021233E0,2.141576260E-1,-1.818545163E-1
8.049673242E0,9.622138023E0,2.446661144E-1,-2.685943544E-1
8.069133867E0,9.640084267E0,3.840480447E-1,-4.426721931E-1
8.088594492E0,9.701101303E0,4.965106845E-1,-5.760720372E-1
8.108055117E0,9.686744690E0,4.522434771E-1,-5.389832854E-1
8.127515742E0,9.678967476E0,2.093719840E-1,-3.954139352E-1
8.146976367E0,9.656833649E0,-6.879365444E-2,-2.763710022E-1
8.166436992E0,9.557532310E0,-2.871387303E-1,-2.805584669E-1
8.185897617E0,9.404391289E0,-4.277170599E-1,-2.793620527E-1
8.205358242E0,9.340981483E0,-5.503492355E-1,-3.266202807E-1
8.224818867E0,9.457631111E0,-6.927221417E-1,-4.127618968E-1
8.244279492E0,9.658628464E0,-8.297112584E-1,-5.282155871E-1
8.263740117E0,9.791430473E0,-8.027920127E-1,-6.071787477E-1
8.283200742E0,9.896116257E0,-5.294120312E-1,-5.832505226E-1
8.302661367E0,1.011805058E1,-4.426721856E-2,-4.540380836E-1
8.322121992E0,1.053440189E1,4.115654826E-1,-4.253242314E-1
8.341582721E0,1.082213879E1,6.269195080E-1,-5.383850932E-1
8.361043346E0,1.077547836E1,4.875376225E-1,-6.933203340E-1
8.380503971E0,1.044646549E1,-4.007977992E-2,-5.808576941E-1
8.399964596E0,1.010070229E1,-6.478567123E-1,-2.542374134E-1
8.419425221E0,9.924231529E0,-1.031904817E0,5.623133108E-2
8.438885846E0,9.915857315E0,-1.060020447E0,2.051845491E-1
8.458346471E0,9.921838760E0,-6.221339107E-1,8.135596663E-2
8.477807096E0,9.791430473E0,-3.361915946E-1,-3.349951655E-2
8.497267721E0,9.605388641E0,-5.228317380E-1,-1.088734269E-1
8.516728346E0,9.583852768E0,-1.050449133E0,-1.836491376E-1
8.536188971E0,9.824930191E0,-1.453041553E0,-4.193421602E-1
8.555649596E0,1.014915752E1,-1.317847013E0,-7.902296782E-1
8.575110221E0,1.038185883E1,-6.927221417E-1,-1.143171072E0
8.594570846E0,1.053380394E1,-7.597211748E-2,-1.309472203E0
8.614031471E0,1.037228775E1,2.177468538E-1,-1.228116274E0
8.633492096E0,9.777072906E0,1.495514214E-1,-9.678967595E-1
8.652952721E0,9.240483284E0,-1.016949583E-2,-7.010970116E-1
8.672413450E0,9.077771187E0,-1.968096644E-1,-4.319044948E-1
8.691874075E0,9.214161873E0,-2.452643216E-1,-2.374876440E-1
8.711334700E0,9.505488396E0,-9.810572863E-2,-2.662015259E-1
8.730795325E0,9.762118340E0,1.082752272E-1,-5.611169338E-1
8.750255950E0,9.876974106E0,2.656033039E-1,-9.828519225E-1
8.769716575E0,9.697511673E0,4.133601189E-1,-1.185643673E0
8.789177200E0,9.512067795E0,5.431707501E-1,-1.188036442E0
8.808637825E0,9.476176262E0,7.328019142E-1,-1.202393413E0
8.828098450E0,9.445069313E0,8.895317912E-1,-1.282552958E0
8.847559075E0,9.455238342E0,9.720842242E-1,-1.463809252E0
8.867019700E0,9.631709099E0,1.024128079E0,-1.579861164E0
8.886480325E0,9.829715729E0,1.013360381E0,-1.466800332E0
8.905940950E0,9.829116821E0,9.535398483E-1,-1.375872970E0
8.925401575E0,9.633503914E0,8.811569214E-1,-1.325623751E0
8.944862200E0,9.521040916E0,8.033902049E-1,-1.170090318E0
8.964322825E0,9.647860527E0,7.543373108E-1,-8.961120844E-1
8.983783554E0,9.907482147E0,7.992027402E-1,-6.867401004E-1
9.003244179E0,1.015753174E1,8.841479421E-1,-5.784648657E-1
9.022704804E0,1.029811001E1,9.230313301E-1,-4.893322289E-1
9.042165429E0,1.043210888E1,8.937192559E-1,-4.414757788E-1
9.061626054E0,1.049910736E1,7.286145091E-1,-4.163511395E-1
9.081086679E0,1.034357452E1,5.545366406E-1,-4.121637046E-1
9.100547304E0,1.014317513E1,7.112665176E-1,-3.122633696E-1
9.120007929E0,9.865009308E0,9.553344250E-1,-3.948157281E-2
9.139468554E0,9.564710617E0,9.942178130E-1,5.024927482E-2
9.158929179E0,9.358329773E0,9.870393276E-1,-1.411765367E-1
9.178389804E0,9.342776299E0,1.053440213E0,-3.110669553E-1
9.197850429E0,9.516854286E0,1.255633712E0,-4.103690982E-1
9.217311054E0,9.618548393E0,1.564307809E0,-5.754738450E-1
9.236771679E0,9.530014038E0,1.814955950E0,-7.298108935E-1
9.256232304E0,9.320044518E0,1.946561217E0,-8.225327730E-1
9.275692929E0,9.279964447E0,1.969292998E0,-1.002592683E0
9.295153554E0,9.510871887E0,1.667797327E0,-1.216152072E0
9.314614179E0,1.020718288E1,9.343972206E-1,-1.376471281E0
9.334074804E0,1.097886848E1,7.477571070E-2,-1.438684583E0
9.353535533E0,1.125643635E1,-3.403790295E-1,-1.261615753E0
9.372996158E0,1.095374393E1,-1.232303679E-1,-7.238288522E-1
9.392456783E0,1.022812080E1,4.528416991E-1,-5.503492057E-2
9.411917408E0,9.597013474E0,8.273184299E-1,2.327020019E-1
9.431378033E0,9.340981483E0,6.951149702E-1,1.310070455E-1
9.450838658E0,9.393025398E0,3.098705411E-1,-1.148554832E-1
9.470299283E0,9.521040916E0,6.939185411E-2,-3.302095234E-1
9.489759908E0,9.689735413E0,8.374879509E-2,-3.684946895E-1
9.509220533E0,9.796216011E0,2.895315289E-1,-2.901297510E-1
9.528681158E0,9.806983948E0,4.737788737E-1,-2.925225794E-1
9.548141783E0,9.759725571E0,5.485545993E-1,-3.918247223E-1
9.567602408E0,9.751350403E0,4.767699242E-1,-4.953143001E-1
9.587063033E0,9.796216011E0,3.278166950E-1,-5.976074338E-1
9.606523658E0,9.851848602E0,1.686939895E-1,-6.664010882E-1
9.625984283E0,9.856635094E0,3.349951655E-2,-6.945167780E-1
9.645444908E0,9.839884758E0,1.136590727E-2,-6.933203340E-1
9.664905533E0,9.838089943E0,4.486542568E-2,-5.437689424E-1
9.684366158E0,9.844072342E0,8.973085135E-2,-3.559323549E-1
9.703826783E0,9.859625816E0,1.154536903E-1,-2.422732860E-1
9.723287408E0,9.790832520E0,4.187439568E-3,-1.704886109E-1
9.742748033E0,9.780662537E0,-1.310070455E-1,-9.870393574E-2
9.762208762E0,9.853045464E0,-1.974078715E-1,-1.016949639E-1
9.781669387E0,9.820742607E0,-1.603191197E-1,-1.076770201E-1
9.801130012E0,9.718449593E0,-8.673982322E-2,-1.938186288E-1
9.820590637E0,9.718449593E0,-2.991028363E-3,-1.998006850E-1
9.840051262E0,9.812367439E0,4.845465720E-2,-7.657032460E-2
9.859511887E0,9.826126099E0,2.572284266E-2,-4.007977992E-2
9.878972512E0,9.831509590E0,-2.392822644E-3,-1.274178028E-1
9.898433137E0,9.851250648E0,-5.084748194E-2,-1.615155339E-1
9.917893762E0,9.881759644E0,-5.024927482E-2,-1.363908947E-1
9.937354387E0,9.899106979E0,-3.050848842E-2,-1.573280841E-1
9.956815012E0,9.889535904E0,1.914258115E-2,-1.794617027E-1
9.976275637E0,9.852447510E0,3.589234129E-2,-2.015953064E-1
9.995736262E0,9.873384476E0,1.435693540E-2,-1.884347796E-1
1.001519689E1,9.887143135E0,1.136590727E-2,-1.459621787E-1
1.003465751E1,9.824331284E0,7.896314561E-2,-5.383851007E-2
1.005411814E1,9.778269768E0,1.136590764E-1,6.580262445E-3
1.007357876E1,9.808777809E0,9.212367237E-2,-4.785645381E-2
1.009303939E1,9.906285286E0,6.101697683E-2,-1.262213886E-1
1.011250001E1,9.999606133E0,7.357929647E-2,-1.351944804E-1
1.013196064E1,1.001515961E1,9.451649338E-2,-1.034895778E-1
1.015142137E1,9.949356079E0,2.051845491E-1,-1.974078640E-2
1.017088199E1,9.832706451E0,2.632105052E-1,6.759724021E-2
1.019034262E1,9.754341125E0,2.237289101E-1,1.124626622E-1
1.020980324E1,9.756135941E0,7.716853172E-2,3.888336942E-2
1.022926387E1,9.848857880E0,-7.776673418E-3,-1.034895778E-1
1.024872449E1,9.937990189E0,7.298108935E-2,-1.854437590E-1
1.026818512E1,9.951150894E0,1.818545163E-1,-1.375873089E-1
1.028764574E1,9.904491425E0,1.998006850E-1,-3.170489892E-2
1.030710637E1,9.770493507E0,1.280160099E-1,5.503492057E-2
1.032656699E1,9.696913719E0,5.802594870E-2,7.716853172E-2
1.034602762E1,9.744172096E0,5.204389244E-2,-3.230310604E-2
1.036548824E1,9.887741089E0,1.190429255E-1,-1.752742529E-1
1.038494887E1,9.997811317E0,2.243271172E-1,-2.273181528E-1
1.040440949E1,9.993025780E0,3.080759048E-1,-1.686939895E-1
1.042387012E1,9.915258408E0,2.775674164E-1,-8.015955985E-2
1.044333074E1,9.833304405E0,2.003988922E-1,-7.657032460E-2
1.046279137E1,9.717252731E0,1.956132501E-1,-1.328016520E-1
1.048225199E1,9.638887405E0,2.255235314E-1,-1.483550072E-1
1.050171262E1,9.705886841E0,2.548356056E-1,-1.022931710E-1
1.052117324E1,9.896714211E0,2.811566591E-1,-5.204389244E-2
1.054063387E1,1.005523872E1,2.745763958E-1,-5.324030295E-2
1.056009460E1,1.006660461E1,2.231307179E-1,-1.298106313E-1
1.057955522E1,9.911669731E0,1.531406492E-1,-2.123630047E-1
1.059901585E1,9.770493507E0,1.585244983E-1,-1.878365725E-1
1.061847647E1,9.757930756E0,2.159522474E-1,-4.307080805E-2
1.063793710E1,9.773484230E0,2.859423161E-1,6.400800496E-2
1.065739772E1,9.754341125E0,2.596212626E-1,5.443671346E-2
1.067685835E1,9.859027863E0,1.740778536E-1,-6.221338734E-2
1.069631897E1,9.979865074E0,1.142572835E-1,-1.908276081E-1
1.071577960E1,9.936794281E0,1.405783296E-1,-1.549352705E-1
1.073524022E1,9.888937950E0,1.866401732E-1,-1.250249892E-1
1.075470085E1,9.882955551E0,2.195414752E-1,-1.124626622E-1
1.077416147E1,9.869794846E0,2.500499785E-1,-4.007977992E-2
1.079362210E1,9.802796364E0,3.110669553E-1,-2.333002165E-2
1.081308272E1,9.836894035E0,3.176472187E-1,-4.785645381E-2
1.083254335E1,9.893723488E0,2.907279432E-1,-9.391828626E-2
1.085200397E1,9.915258408E0,2.841476798E-1,-1.866401732E-1
1.087146460E1,9.926624298E0,2.847459018E-1,-3.296113312E-1
1.089092522E1,9.847661972E0,2.673979402E-1,-3.702892959E-1
1.091038585E1,9.786046028E0,2.709871531E-1,-2.877369225E-1
1.092984647E1,9.786644936E0,3.116651475E-1,-1.232303679E-1
1.094930710E1,9.811170578E0,3.020938635E-1,4.725824669E-2
1.096876772E1,9.862018585E0,2.087737769E-1,5.922235921E-2
1.098822845E1,9.888339996E0,7.896314561E-2,-5.862415582E-2
1.100768908E1,9.818947792E0,7.776673418E-3,-1.220339537E-1
1.102714970E1,9.752547264E0,2.811566554E-2,-1.190429255E-1
1.104661033E1,9.777072906E0,9.511470050E-2,-6.041877344E-2
1.106607095E1,9.888937950E0,9.810572863E-2,-3.768695518E-2
1.108553158E1,9.984052658E0,8.913264424E-2,-7.776673883E-2
1.110499220E1,1.000857925E1,1.250249892E-1,-1.471585929E-1
1.112445282E1,9.892526627E0,1.818545163E-1,-1.890329868E-1
1.114391345E1,9.832706451E0,2.608176768E-1,-2.039881349E-1
1.116337408E1,9.820742607E0,3.469592929E-1,-2.374876440E-1
1.118283470E1,9.754940033E0,3.762713671E-1,-2.321037948E-1
1.120229533E1,9.731011391E0,3.182454109E-1,-2.464607358E-1
1.122175595E1,9.782457352E0,3.242274821E-1,-2.398804724E-1
1.124121658E1,9.775876999E0,4.492524564E-1,-2.763710022E-1
1.126067720E1,9.731609344E0,5.497509837E-1,-3.960121572E-1
1.128013782E1,9.713065147E0,4.923232496E-1,-4.725824594E-1
1.129959845E1,9.722038269E0,4.336991012E-1,-5.497509837E-1
1.131905908E1,9.656833649E0,3.810569942E-1,-5.138586760E-1
1.133851970E1,9.579665184E0,2.847459018E-1,-5.060819983E-1
1.135798033E1,9.438488960E0,1.842473447E-1,-6.669993401E-1
1.137744095E1,9.200403214E0,1.531406492E-1,-9.236295223E-1
1.139690168E1,8.901300430E0,2.685943544E-1,-1.176670551E0
1.141636230E1,8.408976555E0,4.414757788E-1,-1.412363529E0
1.143582293E1,7.584051132E0,6.077769399E-1,-1.526620865E0
1.145528355E1,6.554539204E0,5.090730190E-1,-1.344168067E0
1.147474418E1,5.714060307E0,2.291127741E-1,-6.957131624E-1
1.149420480E1,5.427519798E0,1.184447184E-1,3.206382394E-1
1.151366543E1,5.616552830E0,5.563312769E-2,1.421934843E0
1.153312605E1,6.294320107E0,-1.854437590E-1,1.741974831E0
1.155258668E1,7.741379261E0,-2.261217386E-1,8.895317912E-1
1.157204730E1,1.053559780E1,-2.153540403E-2,-3.589233849E-3
1.159150793E1,1.514237976E1,3.080759048E-1,5.084748194E-2
1.161096855E1,2.082533455E1,7.238288522E-1,7.956135273E-2
1.163042918E1,2.672483826E1,1.147358418E0,-1.898704767E0
1.164988980E1,2.892204666E1,9.547362328E-1,-4.444668293E0
1.166935043E1,2.442234421E1,8.937192559E-1,-4.172484398E0
1.168881105E1,1.847259140E1,8.530412912E-1,-3.443271875E0
1.170827168E1,1.352064419E1,1.052841991E-1,-3.659224033E0
1.172773230E1,1.089751244E1,-5.156532526E-1,-4.395615101E0
1.174719293E1,9.905089378E0,-4.151547253E-1,-4.014558315E0
1.176665355E1,8.447860718E0,-2.273181528E-1,-2.709273338E0
1.178611418E1,5.682953835E0,-2.871387079E-2,-1.120439172E0
1.180557480E1,1.933400750E0,2.572284341E-1,6.059823632E-1
1.182503543E1,-1.963310957E0,8.985049129E-1,1.975275040E0
1.184449605E1,-4.738985062E0,1.418345571E0,1.957927108E0
1.186395668E1,-5.416153908E0,1.482353687E0,1.383649707E0
1.188341730E1,-4.216751575E0,9.840483069E-1,1.544566989E0
1.190287793E1,-1.934597135E0,2.111666054E-1,1.945963025E0
1.192233855E1,-5.551348329E-1,-8.039883971E-1,1.490130305E0
1.194179918E1,1.674975902E-1,-1.479362607E0,2.931207716E-1
1.196125980E1,7.573283911E-1,-1.387238979E0,-1.007378340E0
1.198072043E1,1.601396561E0,-6.275177598E-1,-2.140379906E0
1.200018105E1,2.657827854E0,6.723831892E-1,-2.134397745E0
1.201964168E1,4.343571186E0,2.270190477E0,-1.610967875E0
1.203910230E1,7.130611420E0,3.339782238E0,-2.419143677E0
1.205856293E1,1.273519993E1,3.107678413E0,-4.576273441E0
1.207802366E1,2.479861641E1,1.489532143E-1,-2.218146563E0
1.209748428E1,4.534219360E1,4.139583111E-1,-4.161118507E0
1.211694491E1,5.220959473E1,-1.477568001E-1,-1.103031445E1
1.213640553E1,3.516851044E1,2.918645382E0,-4.709673405E0
1.215586616E1,2.520958328E1,2.789433002E0,1.046261668E0
1.217532678E1,2.272523499E1,-1.540379524E0,-6.496513486E-1
1.219478741E1,1.967617989E1,-2.706282377E0,-4.374079704E0
1.221424803E1,1.307737350E1,-1.296311617E0,-4.402793884E0
1.223370866E1,6.323033810E0,1.455434322E0,-2.607578516E0
1.225316928E1,-4.564309120E-1,3.771686792E0,8.805587292E-1
1.227262991E1,-7.476972580E0,4.133002758E0,3.554538012E0
1.229209053E1,-6.756732941E0,2.078166485E0,1.630708575E0
1.231155116E1,-5.596213818E0,1.734796353E-2,1.974078640E-2
1.233101178E1,-4.331607342E0,-9.511470199E-1,-4.666004330E-2
1.235047241E1,-2.589034081E0,-1.750947952E0,-2.632104978E-2
1.236993303E1,-2.482553422E-1,-2.018944025E0,2.937189937E-1
1.238939366E1,1.727617979E0,-1.199402332E0,4.372883439E-1
1.240885428E1,2.569293261E0,-3.110669367E-2,-3.708875179E-2
1.242831491E1,2.073380709E0,1.036690354E0,-7.369893789E-1
1.244777553E1,7.214360237E-1,1.540977836E0,-2.739782035E-1
1.246723616E1,7.435696125E-1,1.644467354E0,3.996013701E-1
1.248669678E1,1.809572101E0,1.548754454E0,-9.475577474E-1
1.250615741E1,2.944966555E0,1.177268744E0,-4.416552544E0
1.252561803E1,7.951947689E0,1.041476011E0,-5.810371399E0
1.254507866E1,3.260579681E1,-3.084348440E0,1.348355532E0
1.256453928E1,6.744350433E1,-5.848058701E0,-9.972088814E0
1.258400001E1,4.173082733E1,4.648656368E0,-1.272144127E1
1.260346064E1,2.094916153E1,5.833103180E0,-5.350351334E0
1.262292126E1,1.426720524E1,3.797409534E0,-2.050050735E0
1.264238189E1,1.072163963E1,1.667199135E0,4.516452849E-1
1.266184251E1,8.809774399E0,-5.790630579E-1,2.316252232E0
1.268130314E1,4.151547432E0,-1.589432478E0,4.450051785E0
1.270076376E1,-2.911466837E0,7.178467698E-3,6.078367710E0
1.272022439E1,-7.661220074E0,1.921436548E0,2.613560438E0
1.273968501E1,-7.272386074E0,2.237887383E0,-3.005385160E0
1.275914564E1,-7.824530125E0,6.257231236E-1,-3.603590965E0
1.277860626E1,-5.338985443E0,-1.015753269E0,-1.513460279E0
1.279806689E1,-1.570888042E0,-2.376072884E0,-4.947160780E-1
1.281752751E1,2.714657307E0,-2.431107759E0,2.195414752E-1
1.283698814E1,4.122833252E0,-1.423729420E0,1.716850251E-1
1.285644876E1,3.502494097E0,9.990034252E-2,-8.644071817E-1
1.287590939E1,2.067398787E0,9.595218897E-1,-2.661417007E0
1.289537001E1,1.791027784E0,1.512862086E0,-4.761716843E0
1.291483064E1,4.581656933E0,2.013560295E0,-5.953940868E0
1.293429126E1,8.592626572E0,1.503290772E0,-5.190032482E0
1.295375189E1,1.547737503E1,6.783652306E-1,-5.913262844E0
1.297321251E1,3.188496017E1,3.290131092E-1,-2.181057930E0
1.299267314E1,5.380321503E1,4.328616142E0,-2.619542599E0
1.301213376E1,4.623651123E1,3.031108141E0,-4.657031059E0
1.303159439E1,3.070230675E1,7.178467698E-3,-1.172483116E-1
1.305105501E1,2.368415833E1,-4.125824451E0,-1.168295622E0
1.307051564E1,2.113221359E1,-6.609574318E0,-3.832105398E0
1.308997626E1,1.543191147E1,-2.233101845E0,-4.497310162E0
1.310943689E1,9.176474571E0,2.867797852E0,-3.098705292E0
1.312889751E1,3.634099483E0,6.439683914E0,-8.123632669E-1
1.314835814E1,-3.109472990E0,7.542177200E0,1.802393675E0
1.316781876E1,-6.579664230E0,3.981058598E0,9.918249846E-1
1.318727939E1,-5.752345562E0,-1.577468276E0,-2.635095835E0
1.320674001E1,-3.189632654E0,-3.137588739E0,-2.535793781E0
1.322620064E1,-2.210369825E0,-2.364108801E0,-7.435696125E-1
1.324566126E1,-1.022931695E0,-1.569093466E0,8.446664214E-1
1.326512189E1,-5.982056726E-3,-8.075776696E-1,1.841875196E0
1.328458251E1,1.184447184E-1,6.574280262E-1,2.501696110E0
1.330404314E1,-3.403790295E-1,1.865803480E0,2.194218397E0
1.332350376E1,4.785645287E-3,1.063609719E0,3.008974493E-1
1.334296439E1,5.377869010E-1,-4.283152521E-1,-5.222335458E-1
1.336242501E1,1.292722464E0,-1.179661512E0,-2.464607358E-1
1.338188564E1,3.933800459E0,-8.524430394E-1,-3.033500910E0
1.340134626E1,1.259880924E1,-9.302098155E-1,-4.810770035E0
1.342080689E1,4.413381958E1,-3.281157970E0,-1.751546144E0
1.344026751E1,6.977351379E1,7.794619799E-1,-1.048594666E1
1.345972814E1,2.901297379E1,2.848655462E0,-3.771088600E0
1.347918876E1,1.753281021E1,-2.298306227E0,-3.471387386E0
1.349864949E1,1.156451225E1,-4.087539196E0,-4.170690060E0
1.351811012E1,9.539586067E0,-1.558325768E0,-2.308475733E0
1.353757074E1,6.825526714E0,7.543373108E-1,-6.221338734E-2
1.355703137E1,1.792224169E0,2.096710920E0,1.030110121E0
1.357649199E1,-3.145963669E0,2.068595171E0,2.392822742E0
1.359595262E1,-6.363113403E0,8.321040869E-1,2.059023857E0
1.361541324E1,-6.395416737E0,-2.063809484E-1,6.520441771E-1
1.363487387E1,-5.315655708E0,-5.922235847E-1,4.881358147E-1
1.365433449E1,-4.088137627E0,-1.022333503E0,6.999006271E-1
1.367379512E1,-1.987239242E0,-1.390828133E0,9.403793216E-1
1.369325574E1,4.815555513E-1,-1.685145378E0,-1.495514158E-2
1.371271637E1,1.848455548E0,-1.816750646E0,-1.814955950E0
1.373217699E1,1.538584948E0,-1.749153376E0,-3.650849104E0
1.375163762E1,1.519442320E0,-7.298108935E-1,-4.024727821E0
1.377109824E1,1.374078393E0,9.308080077E-1,-2.021337032E0
1.379055887E1,2.830709219E0,2.413759947E0,3.583251834E-1
1.381001949E1,7.563712597E0,3.341576815E0,1.050449133E0
1.382948012E1,1.814656830E1,4.125226021E0,2.040479422E0
1.384894074E1,4.037230301E1,5.069792747E0,6.549753666E0
1.386840137E1,6.976155090E1,2.688336134E0,-6.181857109E0
1.388786199E1,4.187738800E1,-1.262812138E0,-6.499504566E0
1.390732262E1,2.375474739E1,1.004985496E-1,3.337987661E-1
1.392678324E1,1.991546249E1,-3.009572744E0,-2.355733871E0
1.394624387E1,1.775534248E1,-4.610371113E0,-4.573880672E0
1.396570449E1,1.264905834E1,-2.621337175E0,-3.142374277E0
1.398516512E1,5.748157978E0,2.118246317E0,-1.234696507E0
1.400462585E1,-1.338784218E0,7.632505894E0,1.603789330E0
1.402408647E1,-6.949355125E0,9.260223389E0,3.041875839E0
1.404354710E1,-7.164111137E0,4.101297855E0,-6.233302951E-1
1.406300772E1,-5.822933674E0,-5.162515044E-1,-2.708076954E0
1.408246835E1,-4.908875465E0,-2.489133835E0,-1.850250125E0
1.410192897E1,-2.715255499E0,-2.919243574E0,2.656033039E-1
1.412138960E1,1.226321608E-1,-2.350948334E0,1.270588875E0
1.414085022E1,1.629512191E0,-2.018345833E0,1.479960799E0
1.416031085E1,1.675574064E0,-2.112264156E0,1.278365493E0
1.417977147E1,5.712863803E-1,-2.597409010E0,8.673982322E-2
1.419923210E1,-1.495514214E-1,-2.802593470E0,-2.285743713E0
1.421869272E1,1.232901812E0,-7.938188910E-1,-4.322035789E0
1.423815335E1,6.010770321E0,3.039483070E0,-3.211168051E0
1.425761397E1,1.902174377E1,9.806385040E0,5.177470207E0
1.427707460E1,4.542414856E1,1.025204849E1,1.727019787E0
1.429653522E1,6.966045380E1,-8.318648338E0,-1.515314770E1
1.431599585E1,3.317409134E1,-9.891928673E0,-4.883750916E0
1.433545647E1,1.463510132E1,-8.008777618E0,-3.350549936E0
1.435491710E1,7.198208809E0,-4.853242397E0,-1.219143152E0
1.437437772E1,3.217149973E0,-4.414757788E-1,4.034298897E0
1.439383835E1,-5.312066078E-1,1.808973908E0,5.992226124E0
1.441329897E1,-4.993820667E0,2.904886723E0,5.713462353E0
1.443275960E1,-5.729613781E0,3.333800077E0,3.306880951E0
1.445222022E1,-3.512065411E0,2.864806890E0,-1.039681435E0
1.447168085E1,-3.749552965E0,1.335195065E0,-2.832503796E0
1.449114147E1,-3.327818155E0,8.554340899E-2,-1.795215130E0
1.451060210E1,-1.441675663E0,-7.692924738E-1,-3.367897868E-1
1.453006272E1,-2.691925503E-2,-5.108676553E-1,3.655036688E-1
1.454952335E1,1.138983607E0,5.772684813E-1,-1.286740422E0
1.456898397E1,2.404188633E0,1.183250785E0,-3.312862873E0
1.458844460E1,2.474776745E0,3.074777126E-1,-4.103092670E0
1.460790522E1,2.950350285E0,6.340979785E-2,-2.989831924E0
1.462736585E1,3.777668715E0,3.074777126E-1,-1.311266780E0
1.464682647E1,6.767500877E0,4.217349887E-1,8.853443712E-2
1.466628710E1,1.347577858E1,4.402793646E-1,3.714857101E-1
1.468574772E1,2.896930504E1,2.800200701E0,3.677170277E0
1.470520845E1,5.293282700E1,6.732804775E0,2.175075769E0
1.472466908E1,5.101258469E1,2.219941139E0,-5.516652584E0
1.474412970E1,3.079203796E1,-3.493520975E0,-3.451646566E0
1.476359033E1,2.686122894E1,-6.206383705E0,-2.809772015E0
1.478305095E1,2.291725922E1,-5.259424210E0,-1.767099500E0
1.480251158E1,1.705005836E1,-6.406782866E-1,-1.710868239E0
1.482197220E1,1.137906837E1,4.761716843E0,-3.106482029E0
1.484143282E1,4.838885784E0,8.676374435E0,-3.057429075E0
1.486089345E1,-2.447857618E0,8.319844246E0,9.571290612E-1
1.488035408E1,-6.661618233E0,4.417150497E0,2.580060959E0
1.489981470E1,-6.896713257E0,-1.953141451E0,-2.087737769E-1
1.491927533E1,-5.310271740E0,-5.562714577E0,-2.116451740E0
1.493873595E1,-4.452444553E0,-5.143970490E0,-1.307079315E0
1.495819658E1,-2.865405083E0,-2.958127022E0,3.188436031E-1
1.497765720E1,-1.140778184E0,-8.225327730E-1,1.086341500E0
1.499711782E1,5.509474277E-1,1.674975827E-2,7.549355626E-1
1.501657845E1,1.170688510E0,-1.082752272E-1,-7.166503668E-1
1.503603908E1,7.465606928E-1,-1.465603858E-1,-1.240678549E0
1.505549970E1,4.821537733E-1,-2.165504545E-1,-4.390829504E-1
1.507496033E1,9.571290612E-1,-1.262213886E-1,-8.919246197E-1
1.509442095E1,5.066802025E0,7.812566161E-1,-8.685946465E-1
1.511388158E1,1.382572937E1,9.188438654E-1,2.930609465E0
1.513334220E1,5.056213760E1,8.195417523E-1,1.944168359E-1
1.515280282E1,6.476114655E1,-4.320241451E0,-1.042911720E1
1.517226355E1,3.116053200E1,-4.654040039E-1,-5.674578667E0
1.519172418E1,1.771586037E1,-3.028715372E0,-5.435894966E0
1.521118480E1,8.002795219E0,-2.833700180E0,-3.687339783E0
1.523064543E1,4.463212490E0,4.426721856E-2,-3.750749528E-1
1.525010605E1,3.704089403E0,1.807179332E0,2.209771633E0
1.526956668E1,7.770691514E-1,3.406183004E0,3.548556089E0
1.528902730E1,-3.819543123E0,4.135395527E0,2.459223509E0
1.530848793E1,-5.586642742E0,2.431107759E0,-7.770691514E-1
1.532794855E1,-5.320441246E0,6.155536175E-1,-2.033899307E0
1.534740918E1,-5.286343575E0,-7.148557901E-1,-1.070788145E0
1.536686980E1,-4.050450325E0,-1.587637782E0,5.712863803E-1
1.538633043E1,-1.774876237E0,-2.045265198E0,1.537388563E0
1.540579105E1,5.611169338E-1,-1.868196249E0,1.423131227E0
1.542525168E1,2.178664923E0,-7.746763229E-1,6.005984545E-1
1.544471230E1,3.202793121E0,6.951149702E-1,-1.518245935E0
1.546417293E1,3.929014683E0,1.795215130E0,-3.854837179E0
1.548363355E1,4.887938499E0,2.438884497E0,-5.165505886E0
1.550309418E1,7.064210415E0,2.457428932E0,-3.850051641E0
1.552255480E1,1.305284786E1,2.097309113E0,-2.992224693E0
1.554201543E1,3.348516083E1,2.909672260E0,6.549155712E0
1.556147605E1,7.358707428E1,-8.027920127E-1,-3.796811342E0
1.558093668E1,4.900321198E1,-4.878366947E0,-1.040339470E1
1.560039730E1,2.315594292E1,8.087740541E-1,-3.997808456E0
1.561985793E1,1.514178181E1,1.576271892E0,-5.255236626E0
1.563931855E1,1.211665535E1,-2.231307179E-1,-3.446262836E0
1.565877918E1,9.238089561E0,-1.782652855E0,-1.306481123E0
1.567823980E1,4.757529736E0,-2.152343988E0,3.511467278E-1
1.569770043E1,-1.883749604E0,-1.064207911E0,3.022733212E0
1.571716105E1,-6.856035233E0,6.897311211E-1,3.843471289E0
1.573662178E1,-6.677769661E0,1.622333765E0,2.018345833E0
1.575608241E1,-5.513063431E0,1.670788407E0,5.539384484E-1
1.577554293E1,-5.317450047E0,1.098903775E0,-9.840483069E-1
1.579500366E1,-3.668197155E0,5.563312769E-2,-1.682154298E0
1.581446418E1,-1.502692580E0,-5.234299302E-1,-1.262213945E0
1.583392491E1,3.924229145E-1,-5.210371017E-1,-8.099704385E-1
1.585338553E1,1.374676585E0,4.965107143E-2,-7.274180651E-1
1.587284616E1,2.139183521E0,8.757730722E-1,-4.091726840E-1
1.589230678E1,3.334996462E0,1.152144074E0,-5.174478889E-1
1.591176741E1,4.860421181E0,1.319641709E0,-7.429714203E-1
1.593122803E1,1.113440228E1,1.987837434E0,1.329213023E0
1.595068866E1,4.725645447E1,8.578268886E-1,7.008577347E0
1.597014928E1,6.993801880E1,-4.147359848E0,-1.244566917E1
1.598960991E1,3.242633438E1,-1.597209096E0,-1.185284710E1
1.600907053E1,1.598824310E1,-2.493321180E0,-6.051448345E0
1.602853116E1,9.222537041E0,-2.644667149E0,-3.624528170E0
1.604799178E1,7.702496052E0,-1.581655741E0,-1.902294040E0
1.606745241E1,6.932605267E0,-8.883354068E-1,-9.978070259E-1
1.608691303E1,2.604587555E0,8.793623447E-1,3.786641955E-1
1.610637366E1,-4.503890514E0,3.306880951E0,2.679961443E0
1.612583428E1,-6.965506554E0,3.547359467E0,1.732403636E0
1.614529491E1,-5.030311584E0,1.808973908E0,-6.520441920E-2
1.616475553E1,-3.969692707E0,-2.039881349E-1,-1.884347796E-1
1.618421616E1,-3.223132133E0,-1.886142492E0,1.067797065E0
1.620367678E1,-1.965703845E0,-2.497508526E0,1.758724689E0
1.622313741E1,-1.381855011E-1,-1.908874273E0,1.569691658E0
1.624259803E1,1.737787485E0,-4.366901219E-1,9.738788009E-1
1.626205866E1,2.954537868E0,1.052842021E0,-3.487538993E-1
1.628151928E1,3.117847919E0,1.814955950E0,-2.010569334E0
1.630097991E1,2.502892494E0,2.318047047E0,-3.519243956E0
1.632044053E1,2.313261271E0,2.038086653E0,-4.562514782E0
1.633990116E1,4.395017147E0,9.026923180E-1,-4.387240410E0
1.635936178E1,8.591429710E0,-2.033899277E-1,-2.045863390E0
1.637882241E1,1.559402561E1,-1.213161111E0,-1.316052437E0
1.639828303E1,3.122454071E1,-7.794619799E-1,3.849453449E0
1.641774366E1,5.418666458E1,6.993024349E-1,1.771286964E0
1.643720439E1,5.128477097E1,2.183450609E-1,-5.400600910E0
1.645666501E1,3.246282578E1,7.076773047E-1,-5.056034088E0
1.647612564E1,2.518445778E1,-5.270192027E-1,-2.940180779E0
1.649558626E1,2.088694954E1,-2.069791555E0,-2.519043922E0
1.651504689E1,1.690708733E1,-2.123630047E-1,-1.222134113E0
1.653450751E1,1.012403297E1,2.544766903E0,9.810572863E-2
1.655396814E1,2.248056889E0,4.051048756E0,1.233500123E0
1.657342876E1,-5.216353416E0,3.861417532E0,2.839682341E0
1.659288939E1,-6.738188744E0,1.111466169E0,-3.182454109E-1
1.661235001E1,-3.837489367E0,-2.989233732E0,-2.642274380E0
1.663181064E1,-2.807977438E0,-3.814159393E0,-3.720839322E-1
1.665127126E1,-3.234498024E0,-3.208775282E0,2.304886341E0
1.667073189E1,-2.166102648E0,-2.815753937E0,3.212962627E0
1.669019251E1,-4.348955154E-1,-2.344367981E0,2.367099762E0
1.670965314E1,6.592226624E-1,-1.151545882E0,2.901297510E-1
1.672911376E1,6.143572330E-1,7.752745152E-1,-1.290927768E0
1.674857439E1,1.926222295E-1,2.167299032E0,-2.061416626E0
1.676803501E1,-1.393819153E-1,2.250449657E0,-3.052643538E0
1.678749564E1,-2.721835673E-1,2.090728760E0,-2.881556749E0
1.680695626E1,5.234299302E-1,2.182852507E0,-1.550549030E0
1.682641689E1,3.527020693E0,2.240280151E0,-2.237289190E0
1.684587751E1,1.498265934E1,3.789632797E0,1.430907965E0
1.686533814E1,5.819105530E1,5.411368370E0,4.856831551E0
1.688479876E1,6.414140320E1,-5.393422127E0,-1.295414352E1
1.690425949E1,3.251247787E1,-3.370290756E0,-4.962115765E0
1.692372012E1,1.797308922E1,-2.586641312E0,-3.906881094E0
1.694318074E1,1.011685371E1,-1.024128079E0,-1.722234130E0
1.696264137E1,7.099504948E0,-2.799602449E-1,3.361915946E-1
1.698210199E1,5.196612358E0,6.460621208E-2,1.950150490E0
1.700156262E1,6.891329288E-1,1.222134113E0,3.237488985E0
1.702102324E1,-5.791228771E0,1.999203324E0,3.020938635E0
1.704048387E1,-6.740581512E0,1.243071318E0,2.991028316E-2
1.705994449E1,-5.211567879E0,1.417747438E-1,-1.900499344E0
1.707940512E1,-4.262813568E0,-5.108676553E-1,-1.694716692E0
1.709886574E1,-3.020340443E0,-8.183453679E-1,-4.199403822E-1
1.711832637E1,-1.144367456E0,-5.036891699E-1,7.184450030E-1
1.713778699E1,5.503492057E-2,1.178465188E-1,9.756734371E-1
1.715724762E1,9.810572863E-1,5.581258535E-1,3.146561682E-1
1.717670824E1,1.702493310E0,5.485545993E-1,-5.377869010E-1
1.719616887E1,1.895713687E0,2.099701911E-1,-2.200798512E0
1.721562949E1,2.118246317E0,1.459621787E-1,-3.541975737E0
1.723509012E1,2.819343328E0,5.497509837E-1,-3.454039574E0
1.725455074E1,4.948357105E0,1.180858016E0,-2.605185747E0
1.727401137E1,9.506086349E0,1.755135417E0,-1.295713425E0
1.729347199E1,2.271805573E1,2.274377823E0,3.663411379E0
1.731293262E1,6.245147324E1,1.409372568E0,5.910272002E-1
1.733239324E1,6.519424438E1,-5.209773064E0,-1.148853970E1
1.735185387E1,3.110190964E1,-8.967102766E-1,-5.526223660E0
1.737131449E1,1.986521339E1,2.620140910E-1,-3.756133318E0
1.739077522E1,1.872742653E1,-1.412363529E0,-2.836691141E0
1.741023585E1,1.712902069E1,-2.150549412E0,-2.149353027E0
1.742969647E1,1.190010548E1,-5.240281820E-1,-7.070791125E-1
1.744915710E1,3.580859184E0,2.213361025E0,1.032503009E0
1.746861772E1,-5.059623718E0,3.672982693E0,3.840480328E0
1.748807835E1,-9.126225471E0,3.454039574E0,2.153540373E0
1.750753897E1,-7.247859955E0,1.200000525E0,-2.057827473E0
1.752699960E1,-6.404389858E0,-2.871387303E-1,-3.500699520E0
1.754646022E1,-5.845665932E0,-6.783652306E-1,-2.371885538E0
1.756592085E1,-3.378067255E0,-5.174478889E-1,-6.173482537E-1
1.758538147E1,-5.970092416E-1,-5.862415433E-1,6.143572330E-1
1.760484210E1,1.037288666E0,-7.722834945E-1,9.726824164E-1
1.762430272E1,1.543370605E0,-1.065404296E0,5.754738450E-1
1.764376335E1,1.311266780E0,-1.596610904E0,-1.298106313E-1
1.766322397E1,6.981059909E-1,-1.478764415E0,-2.327020019E-1
1.768268460E1,6.466603279E-1,1.351944804E-1,5.503492057E-2
1.770214522E1,4.342973232E0,1.802393675E0,3.637090325E-1
1.772160585E1,1.855813408E1,3.546761274E0,4.371686935E0
1.774106647E1,6.461458588E1,-2.193620205E0,-5.785845280E0
1.776052720E1,5.435176849E1,-4.401597023E0,-1.067258739E1
1.777998783E1,2.651905441E1,-2.197807550E0,-4.296313286E0
1.779944845E1,1.796531296E1,-2.443071842E0,-2.474776745E0
1.781890908E1,1.295593834E1,-1.144965649E0,-1.006780148E0
1.783836970E1,8.641678810E0,2.087737769E-1,4.307080805E-1
1.785783033E1,4.862813950E0,8.482556343E-1,1.208973646E0
1.787729095E1,3.960121572E-1,1.450050473E0,1.010967612E0
1.789675158E1,-4.524827480E0,1.940579176E0,1.258624673E0
1.791621220E1,-6.935596466E0,1.823929071E0,2.823530734E-1
1.793567282E1,-5.921638012E0,9.840483069E-1,-4.121637046E-1
1.795513345E1,-5.081159115E0,3.481557071E-1,-2.410768867E-1
1.797459408E1,-3.711866140E0,2.219343036E-1,1.512263894E0
1.799405470E1,-1.877169371E0,3.804588020E-1,2.123031855E0
1.801351532E1,3.337987661E-1,4.612165689E-1,9.146564603E-1
1.803297595E1,2.755335331E0,1.268195957E-1,-1.739582062E0
1.805243658E1,3.739383698E0,-4.486542344E-1,-3.058027267E0
1.807189720E1,2.856431961E0,-7.674978375E-1,-3.374478102E0
1.809135783E1,1.895713687E0,4.731806815E-1,-3.357130051E0
1.811081845E1,2.217548370E0,1.661815286E0,-2.298306227E0
1.813027908E1,5.265406132E0,1.426720500E0,-1.900499344E0
1.814973970E1,1.155793190E1,6.735795736E-1,-9.535398483E-1
1.816920043E1,2.144387817E1,-3.786641955E-1,2.903092146E0
1.818866105E1,4.918447113E1,-1.977069736E0,4.835296154E0
1.820812168E1,6.205965042E1,5.204389244E-2,-3.500699520E0
1.822758230E1,3.639543152E1,8.865407705E-1,-4.831109047E0
1.824704293E1,2.582214546E1,-3.164508045E-1,-2.063211441E0
1.826650355E1,2.327498627E1,-2.706282377E0,-3.246462107E0
1.828596418E1,1.825544167E1,-2.377867460E0,-3.520440340E0
1.830542480E1,1.246899891E1,1.980060786E-1,-3.599403381E0
1.832488543E1,5.445466042E0,3.151347399E0,-2.830709219E0
1.834434605E1,-2.038684845E0,4.572684288E0,6.125625968E-1
1.836380668E1,-7.287939548E0,4.440480709E0,2.608176708E0
1.838326730E1,-5.789434433E0,1.410568953E0,-4.187439755E-2
1.840272803E1,-4.511068821E0,-8.991031051E-1,-1.371087432E0
1.842218855E1,-4.415954113E0,-1.589432478E0,-1.013360381E0
1.844164928E1,-3.619742393E0,-1.424925923E0,-3.278166950E-1
1.846110991E1,-1.936391711E0,-8.063812256E-1,4.606183618E-2
1.848057053E1,-1.549352705E-1,-6.640082598E-1,-1.244267747E-1
1.850003116E1,8.279166222E-1,-9.098708034E-1,-6.526423693E-1
1.851949178E1,1.162313581E0,-9.553344250E-1,-8.937192559E-1
1.853895241E1,1.115055323E0,-6.029912829E-1,-1.054038405E0
1.855841303E1,1.220937729E0,4.845465720E-2,-2.763710022E-1
1.857787366E1,3.155534744E0,9.613165259E-1,9.966106415E-1
1.859733428E1,8.184051514E0,2.801397085E0,2.525026083E0
1.861679491E1,2.536092949E1,6.195017815E0,9.817750931E0
1.863625553E1,7.055596161E1,-1.224527001E0,-1.367498159E0
1.865571616E1,5.031926727E1,-8.319844246E0,-1.706321907E1
1.867517678E1,2.301656151E1,-3.685544968E0,-1.056610680E1
1.869463741E1,1.169791126E1,-3.254837036E0,-4.463810444E0
1.871409814E1,4.502095699E0,-1.506281853E0,6.460621208E-2
1.873355876E1,2.227119684E0,1.292124242E-1,1.117448211E0
1.875301939E1,1.418943882E0,1.975275040E0,3.565305769E-1
1.877248001E1,-1.809572101E0,4.182653904E0,-2.129612118E-1
1.879194064E1,-5.134399414E0,5.421537876E0,-6.699903309E-2
1.881140126E1,-4.651647091E0,3.638286829E0,-3.852444589E-1
1.883086189E1,-3.339782238E0,6.394818425E-1,-6.969096065E-1
1.885032251E1,-2.422134638E0,-1.152742267E0,3.218346536E-1
1.886978314E1,-1.820937991E0,-1.737189293E0,1.902294040E0
1.888924376E1,-1.035493970E0,-1.810170293E0,2.298306227E0
1.890870439E1,-1.770688742E-1,-1.663011789E0,1.607976794E0
1.892816501E1,5.581258535E-1,-1.223330617E0,3.768695518E-2
1.894762564E1,1.076770186E0,-3.164508045E-1,-2.176272154E0
1.896708626E1,1.837687731E0,8.955138922E-1,-3.526422262E0
1.898654689E1,3.111865759E0,2.347957134E0,-3.404986620E0
1.900600751E1,5.245067120E0,3.750151396E0,-1.040279627E0
1.902546814E1,1.059422207E1,4.348955154E0,6.634100676E-1
1.904492876E1,2.311287117E1,4.226921082E0,4.764708042E0
1.906438939E1,5.834778214E1,3.978067636E-1,-2.065006018E0
1.908385012E1,6.669335175E1,-5.785845280E0,-1.684786415E1
1.910331074E1,3.311068344E1,-3.942175210E-1,-8.603992462E0
1.912277137E1,2.299562454E1,1.071386337E0,-3.418147087E0
1.914223199E1,2.000698853E1,-4.660021961E-1,-2.169692039E0
1.916169262E1,1.608814240E1,4.689932466E-1,-1.800000787E0
1.918115324E1,7.949554920E0,3.647259951E0,2.428714931E-1
1.920061387E1,-2.272583246E0,5.793622017E0,1.712064624E0
1.922007449E1,-9.875777245E0,4.933402061E0,1.260419369E0
1.923953512E1,-8.370093346E0,-3.457628787E-1,-3.098107100E0
1.925899574E1,-4.971687317E0,-4.570291042E0,-4.439284325E0
1.927845637E1,-4.993820667E0,-4.112065792E0,-1.235294700E0
1.929791699E1,-3.987638950E0,-1.804188251E0,1.439282775E0
1.931737762E1,-1.690529227E0,1.938186288E-1,1.890928149E0
1.933683835E1,7.411768436E-1,1.128814101E0,1.339382529E0
1.935629897E1,1.722234130E0,1.143769264E0,9.140582681E-1
1.937575960E1,1.276570916E0,7.034898400E-1,3.948157430E-1
1.939522022E1,7.357929349E-1,3.278166950E-1,-8.650053740E-1
1.941468085E1,3.242274821E-1,2.691925466E-1,-2.264806747E0
1.943414147E1,1.623530149E0,3.613162339E-1,-3.008974552E0
1.945360210E1,5.714658737E0,-2.470589429E-1,-4.091726840E-1
1.947306272E1,1.915215302E1,-2.488535643E0,8.122436523E0
1.949252335E1,6.190052795E1,-1.187019539E1,2.629712105E0
1.951198397E1,5.731049347E1,-2.333002090E0,-7.824530125E0
1.953144470E1,3.017528725E1,3.387638569E0,-6.875177860E0
1.955090533E1,2.005005836E1,9.906286001E-1,-2.690729141E0
1.957036595E1,1.309472179E1,-1.821536183E0,-2.541177750E0
1.958982658E1,7.577471256E0,-2.346760750E0,-2.289333105E0
1.960928720E1,3.808177233E0,-8.967102766E-1,-8.781659007E-1
1.962874782E1,-1.054636598E0,1.576870084E0,1.106680512E0
1.964820845E1,-6.600601196E0,3.354737282E0,2.043470621E0
1.966766908E1,-7.479963779E0,3.363710403E0,-5.874379873E-1
1.968712970E1,-6.281159401E0,2.026720762E0,-1.991426587E0
1.970659032E1,-5.193621635E0,1.198804140E0,-1.382453322E0
1.972605095E1,-3.464209080E0,6.233302951E-1,-9.451649338E-2
1.974551158E1,-1.100100160E0,2.685943544E-1,6.831508875E-1
1.976497220E1,1.105484009E0,1.256231871E-2,9.511470199E-1
1.978443293E1,2.629113913E0,-2.823530734E-1,6.334998012E-1
1.980389355E1,3.531208038E0,-6.424728632E-1,-5.802594870E-2
1.982335418E1,3.254837036E0,-7.076773047E-1,-6.753742099E-1
1.984281480E1,2.382653236E0,4.115654826E-1,-2.703889608E0
1.986227543E1,1.887937069E0,1.887937069E0,-4.421338081E0
1.988173605E1,3.902095556E0,1.690529227E0,-5.047659397E0
1.990119668E1,8.891729355E0,3.260220885E-1,-1.580459356E0
1.992065730E1,1.687717628E1,-1.872383654E-1,2.109871387E0
1.994011793E1,3.728974915E1,2.787638307E-1,6.646064758E0
1.995957855E1,6.291687775E1,8.650053740E-1,-1.665404558E0
1.997903918E1,4.723013306E1,-3.888336942E-2,-9.053244591E0
1.999849980E1,2.673500824E1,-8.853443712E-2,-5.854040623E0
2.001796053E1,2.376072884E1,-3.089732170E0,-3.336193085E0
2.003742116E1,2.134756660E1,-5.791228771E0,-2.395215511E0
2.005688178E1,1.740060616E1,-2.581257343E0,-1.849053741E0
2.007634241E1,1.004506969E1,4.177868366E0,-7.058826685E-1
2.009580303E1,2.823530734E-1,9.209376335E0,1.488933921E0
2.011526366E1,-7.043871880E0,9.564111710E0,3.026322365E0
2.013472428E1,-6.903293133E0,3.564707518E0,-6.735795736E-1
2.015418491E1,-4.693521500E0,-2.502892494E0,-3.601796389E0
2.017364553E1,-3.403790236E0,-4.761716843E0,-3.186043262E0
2.019310616E1,-3.039483070E0,-4.804189682E0,-8.763712645E-1
2.021256678E1,-1.686939955E0,-3.553939819E0,1.440479279E0
2.023202741E1,-2.709871531E-1,-1.651645780E0,1.869990945E0
2.025148803E1,4.875376225E-1,-6.939185411E-2,3.326023519E-1
2.027094866E1,3.086741269E-1,1.276570916E0,-1.423131227E0
2.029040928E1,-1.423729509E-1,1.314257860E0,-2.554338217E0
2.030987001E1,-2.811566591E-1,3.619144261E-1,-2.419741869E0
2.032933064E1,6.382854581E-1,3.846462369E-1,-1.418943882E0
2.034879126E1,3.083152056E0,1.244866014E0,-5.575276613E-1
2.036825189E1,8.940183640E0,3.003590584E0,5.431707501E-1
2.038771251E1,3.682733536E1,5.442475319E0,6.738786697E0
2.040717314E1,7.239006042E1,-6.092126369E0,-8.005785942E0
2.042663376E1,3.998765564E1,-4.992624283E0,-1.022572803E1
2.044609449E1,1.750349808E1,-2.414358139E0,-4.936393261E0
2.046555512E1,8.668598175E0,-1.719841242E0,-3.150151014E0
2.048501574E1,5.736194134E0,-2.925225794E-1,-8.081758618E-1
2.050447637E1,5.321039200E0,-1.710868180E-1,1.127617717E0
2.052393699E1,3.247060299E0,6.867401004E-1,3.375674486E0
2.054339762E1,-1.331605792E0,2.556730986E0,3.658625841E0
2.056285824E1,-4.472783566E0,2.703291416E0,2.286342144E0
2.058231887E1,-4.910670280E0,1.565504193E0,3.589234054E-1
2.060177949E1,-4.375276089E0,5.605186820E-1,-9.002995491E-1
2.062124012E1,-3.932604074E0,-1.477568001E-1,-3.756731451E-1
2.064070074E1,-2.881556749E0,-5.856433511E-1,9.433703423E-1
2.066016137E1,-1.075573802E0,-8.650053740E-1,4.043870270E-1
2.067962199E1,6.723831892E-1,-9.170492887E-1,-2.196012974E0
2.069908272E1,1.173679471E0,-3.475574851E-1,-2.669193745E0
2.071854335E1,5.497509837E-1,8.943174481E-1,-1.953739643E0
2.073800397E1,1.812563181E0,1.313659668E0,-2.432304144E0
2.075746460E1,5.871388435E0,6.436693072E-1,-1.785643935E0
2.077692522E1,1.075813103E1,-2.219343036E-1,-6.466603279E-1
2.079638585E1,2.538964272E1,-1.785045743E0,5.006382942E0
2.081584647E1,6.259025955E1,-6.329016089E-1,2.017747641E0
2.083530710E1,5.814918137E1,-2.496910334E0,-9.095717430E0
2.085476782E1,2.650230598E1,1.121635556E0,-1.420738459E0
2.087422845E1,2.066680908E1,1.902892232E0,-1.058824062E0
2.089368908E1,1.997767639E1,-8.165507317E-1,-4.010370731E0
2.091314970E1,1.698425484E1,-3.220739365E0,-5.468796253E0
2.093261033E1,1.230209923E1,-2.185843468E0,-4.556532383E0
2.095207095E1,5.135595798E0,1.527817249E0,-1.948355794E0
2.097153158E1,-2.070987940E0,5.450251579E0,2.893520832E0
2.099099220E1,-7.989036560E0,6.923632145E0,5.484947681E0
2.101045282E1,-6.723831654E0,2.109273195E0,1.355534077E0
2.102991355E1,-5.838487148E0,-2.263011932E0,8.853443712E-2
2.104937418E1,-5.953342915E0,-3.680759430E0,-2.171486616E-1
2.106883480E1,-3.592823267E0,-3.818346739E0,-7.310073376E-1
2.108829543E1,-8.739784956E-1,-2.562114954E0,-1.093519926E0
2.110775605E1,1.607976794E0,-4.438686073E-1,-1.411167145E0
2.112721668E1,2.632104874E0,1.320239902E0,-5.557330847E-1
2.114667730E1,1.957927108E0,1.947757602E0,2.727817893E-1
2.116613793E1,1.392024517E0,2.178066730E0,-4.319044948E-1
2.118559855E1,1.888535261E0,2.307877541E0,-1.746760488E0
2.120505918E1,5.042873859E0,1.219143152E0,-2.335394859E0
2.122451980E1,1.710150337E1,-3.445664644E-1,1.353739381E0
2.124398053E1,5.596154022E1,-4.744369030E0,2.244467735E0
2.126344116E1,6.139923096E1,-4.994419098E0,-8.507082939E0
2.128290178E1,2.989472961E1,9.421738982E-1,-2.700300455E0
2.130236241E1,1.733241081E1,-9.559326172E-1,-2.267797709E0
2.132182303E1,1.075813103E1,-2.370688915E0,-1.279561877E0
2.134128366E1,6.454638958E0,-1.449452281E0,-7.465606928E-1
2.136074439E1,4.071387768E0,-2.093719877E-2,-5.222335458E-1
2.138020501E1,4.516452849E-1,2.045863390E0,-4.277170599E-1
2.139966564E1,-4.427320004E0,4.438087940E0,-3.505485058E-1
2.141912626E1,-6.823731899E0,4.999803066E0,-2.041675806E0
2.143858689E1,-6.235097408E0,3.041277647E0,-2.490330219E0
2.145804751E1,-5.448457241E0,6.562315822E-1,-9.385846853E-1
2.147750814E1,-3.568296671E0,-8.315058947E-1,9.786644578E-1
2.149696876E1,-1.252642632E0,-1.541576028E0,2.206182480E0
2.151642939E1,8.105686903E-1,-1.468594909E0,2.374876499E0
2.153589001E1,2.297109842E0,-9.655039310E-1,1.517647743E0
2.155535064E1,3.227319479E0,-7.022934556E-1,1.160518974E-1
2.157481126E1,3.403192043E0,-5.264210105E-1,-1.400997639E0
2.159427189E1,3.049054146E0,-7.118647546E-2,-3.669991732E0
2.161373251E1,2.982055187E0,5.850451589E-1,-4.165904045E0
2.163319324E1,5.537590027E0,1.332203984E0,-5.123033047E0
2.165265387E1,1.051406288E1,2.197209358E0,-4.435695171E0
2.167211449E1,1.830449486E1,3.784847260E0,-1.320239902E0
2.169157512E1,3.950550079E1,6.235097408E0,4.395017147E0
2.171103574E1,5.989593887E1,4.112663746E0,-5.355136871E0
2.173049637E1,4.451248169E1,-2.840280533E0,-9.625128746E0
2.174995699E1,2.535793877E1,-8.374879509E-2,-7.605587006E0
2.176941762E1,2.296092796E1,1.027717352E0,-5.979663849E0
2.178887835E1,2.199482536E1,1.197009563E0,-3.586242914E0
2.180833897E1,1.785823441E1,1.809572101E0,-3.183052301E0
2.182779960E1,1.044826031E1,3.412763357E0,-1.966302037E0
2.184726022E1,9.278169870E-1,3.892524242E0,1.106680512E0
2.186672085E1,-6.419943333E0,2.123031855E0,4.138386726E0
2.188618147E1,-8.081160545E0,-8.967102766E-1,1.094716311E0
2.190564210E1,-4.343571186E0,-3.710071564E0,-2.579462767E0
2.192510272E1,-2.086541414E0,-3.375076294E0,-2.703291416E0
2.194456335E1,-2.430509567E0,-1.730010748E0,-8.398807645E-1
2.196402397E1,-1.954337835E0,-4.450650215E-1,4.683950245E-1
2.198348460E1,-4.079762697E-1,-4.606183618E-2,5.072783828E-1
2.200294533E1,8.123632669E-1,1.603191197E-1,-5.982056633E-2
2.202240595E1,1.106082320E0,3.379862010E-1,-7.262216806E-1
2.204186658E1,1.423729509E-1,1.926222295E-1,-1.354337573E0
2.206132720E1,-1.427318692E0,5.862415582E-2,-2.223530531E0
2.208078782E1,-1.257428288E0,4.666004181E-1,-2.318645239E0
2.210024845E1,1.841277003E0,1.232303619E0,-1.582852125E0
2.211970908E1,5.542375565E0,2.866003275E0,-3.559323549E-1
2.213916970E1,1.822433472E1,6.805785656E0,5.858826160E0
2.215863043E1,6.609215546E1,2.491526604E0,7.548757076E0
2.217809105E1,5.920381546E1,-1.059482002E1,-1.594397545E1
2.219755168E1,2.888196754E1,-5.932405472E0,-7.698308468E0
2.221701230E1,1.346082401E1,-2.282154560E0,-2.196012974E0
2.223647293E1,7.270591736E0,2.054238319E0,1.722832322E0
2.225593366E1,6.098706722E0,1.667199135E0,1.498505235E0
2.227539428E1,4.328616142E0,1.094716311E0,2.973082066E-1
2.229485491E1,4.283152521E-1,1.112662554E0,4.055834413E-1
2.231431553E1,-3.878167391E0,1.091127157E0,1.353739381E0
2.233377616E1,-4.966901779E0,9.888339639E-1,7.938188910E-1
2.235323678E1,-4.183252335E0,6.508477330E-1,4.444667995E-1
2.237269741E1,-3.458825111E0,-9.990034252E-2,4.139583111E-1
2.239215803E1,-2.525624275E0,-6.149554253E-1,4.689932466E-1
2.241161876E1,-1.779661894E0,-4.642075896E-1,2.488535494E-1
2.243107939E1,-8.656035662E-1,-1.196411345E-2,1.357926875E-1
2.245054001E1,-1.657029688E-1,4.366901144E-2,6.658028960E-1
2.247000064E1,8.973085321E-3,-5.551348329E-1,6.999006271E-1
2.248946126E1,4.085744619E-1,-1.066002488E0,-1.109073281E0
2.250892189E1,1.289731383E0,7.657032460E-2,-3.180061340E0
2.252838251E1,2.719442844E0,2.267797709E0,-3.620938778E0
2.254784314E1,6.014957905E0,4.911866665E0,-1.801795483E0
2.256730387E1,1.086760235E1,7.787441254E0,1.506880045E0
2.258676449E1,2.447378922E1,8.147561073E0,1.589432478E0
2.260622512E1,5.447380447E1,1.767099500E0,2.219343036E-1
2.262568574E1,5.982834244E1,-1.273639679E1,-1.129053402E1
2.264514637E1,3.075554848E1,-6.355935097E0,-7.236494064E0
2.266460710E1,2.124946213E1,1.450648785E0,-4.838287354E0
2.268406772E1,2.051785660E1,7.998608112E0,-3.486940861E0
2.270352835E1,1.913061714E1,1.043629551E1,-3.882354736E0
2.272298897E1,1.397707558E1,8.443673134E0,-1.938784599E0
2.274244960E1,6.945765972E0,4.308277130E0,2.619542599E0
2.276191022E1,-1.316052489E-2,4.187439568E-3,4.904089928E0
2.278137095E1,-6.191428661E0,-3.915256023E0,4.032504559E0
2.280083158E1,-7.371089935E0,-6.906882763E0,-2.041077614E0
2.282029220E1,-4.656432629E0,-5.861817360E0,-4.682155609E0
2.283975282E1,-4.497908592E0,-1.719841242E0,-2.170290232E0
2.285921345E1,-3.934398651E0,1.838884234E0,7.561319470E-1
2.287867408E1,-2.187638044E0,3.339782238E0,1.312463164E0
2.289813470E1,5.383851007E-2,2.591426849E0,1.926222295E-1
2.291759532E1,1.566102386E0,1.061216831E0,-5.054838061E-1
2.293705595E1,2.347358942E0,-2.799602449E-1,-4.689932466E-1
2.295651668E1,2.288734913E0,-1.256830096E0,-1.092323542E0
2.297597730E1,1.571486235E0,-8.009973764E-1,-2.205584288E0
2.299543793E1,3.496512175E0,1.602592945E0,-3.272783279E0
2.301489855E1,1.271545982E1,4.773681164E0,2.241476536E0
2.303435918E1,4.349015045E1,5.750551224E0,9.195018768E0
2.305381991E1,6.894380188E1,-1.091067314E1,-7.665407181E0
2.307328053E1,3.726940918E1,-8.885149002E0,-7.316653252E0
2.309274116E1,1.965105629E1,-3.963112593E0,-2.943171740E0
2.311220178E1,1.288535023E1,-1.034297585E0,5.282155871E-1
2.313166241E1,8.816953659E0,6.538388133E-1,5.760720372E-1
2.315112314E1,6.202794552E0,1.812563181E0,-8.620143533E-1
2.317058376E1,3.061018467E0,3.179463148E0,-1.506281853E0
2.319004439E1,-2.118844509E0,3.748954773E0,-5.790630579E-1
2.320950501E1,-6.770491600E0,3.331407309E0,-6.699903607E-1
2.322896564E1,-6.600003242E0,1.978864312E0,-2.322832584E0
2.324842626E1,-5.693123341E0,6.867401004E-1,-1.834696770E0
2.326788699E1,-5.030311584E0,-1.956132501E-1,-2.021935135E-1
2.328734762E1,-3.085544825E0,-6.329016089E-1,1.018744230E0
2.330680824E1,-7.328019142E-1,-4.073780477E-1,1.466800332E0
2.332626887E1,1.319043517E0,5.258227587E-1,1.369890928E0
2.334572949E1,2.517847538E0,1.049252748E0,3.601198196E-1
2.336519012E1,2.784049034E0,8.141579032E-1,-1.432702541E0
2.338465074E1,2.100898266E0,1.944168359E-1,-2.623131752E0
2.340411137E1,1.795215130E0,1.034895778E-1,-3.777668715E0
2.342357210E1,3.154936552E0,1.019940615E0,-4.473979950E0
2.344303272E1,7.216155052E0,2.147558212E0,-4.825126648E0
2.346249335E1,1.343210983E1,2.828914642E0,-2.095514536E0
2.348195397E1,2.585684204E1,4.415954113E0,4.521238327E0
2.350141460E1,5.534180069E1,3.946960926E0,2.503490686E0
2.352087533E1,5.775615692E1,-5.266602516E0,-3.095116138E0
2.354033595E1,2.769632339E1,-2.891726255E0,-5.072783947E0
2.355979658E1,2.362314224E1,-2.100300074E0,-1.572682738E0
2.357925720E1,2.572703171E1,-6.957131624E-1,-1.382453322E0
2.359871782E1,2.155454636E1,8.470591903E-1,-2.261217356E0
2.361817855E1,1.440658665E1,2.483151674E0,-3.111267567E0
2.363763918E1,5.745167255E0,2.933002472E0,-2.946162939E0
2.365709980E1,-1.668993831E0,1.167697430E0,5.383850932E-1
2.367656043E1,-7.026523590E0,-1.244267821E0,3.324826956E0
2.369602105E1,-7.345965385E0,-3.553341627E0,-1.136590764E-1
2.371548168E1,-3.568296671E0,-2.927618504E0,-2.520240545E0
2.373494230E1,-2.307279348E0,-5.659025311E-1,-2.002792597E0
2.375440303E1,-1.992024899E0,1.356730461E0,-9.427721500E-1
2.377386366E1,-9.822536707E-1,2.363510609E0,6.777670383E-1
2.379332428E1,5.748756528E-1,2.169692039E0,1.018146038E0
2.381278491E1,1.817348838E0,9.020941257E-1,-2.153540403E-2
2.383224553E1,2.053640127E0,-4.139583111E-1,-1.086939692E0
2.385170616E1,8.979067206E-1,-8.949156404E-1,-2.009970903E0
2.387116689E1,-6.664010882E-1,-8.476574421E-1,-2.172683001E0
2.389062751E1,9.511470050E-2,-7.351947427E-1,-2.047059774E0
2.391008814E1,2.216351986E0,7.908278704E-1,-1.028315544E0
2.392954876E1,4.923830986E0,2.490330219E0,2.315055877E-1
2.394900939E1,1.449392509E1,3.521636724E0,4.396213531E0
2.396847012E1,4.590091705E1,9.314061999E-1,3.445664644E0
2.398793074E1,6.201478577E1,-9.506684303E0,-1.236251831E1
2.400739137E1,3.267698288E1,-2.978466034E0,-1.061934662E1
2.402685199E1,1.913480377E1,1.250848055E0,-4.410570145E0
2.404631272E1,1.440060520E1,3.184248686E0,-1.141376376E0
2.406577335E1,1.061695385E1,1.429711580E0,-2.703889608E-1
2.408523397E1,8.992227554E0,-9.212366939E-1,-1.132403374E0
2.410469460E1,5.665007591E0,-1.173081279E0,-2.075773716E0
2.412415522E1,3.248256743E-1,-1.836491376E-1,-2.350350142E0
2.414361585E1,-5.365306377E0,1.219143152E0,-2.135594189E-1
2.416307658E1,-8.085348129E0,2.326421738E0,3.158525825E-1
2.418253720E1,-5.879763603E0,1.716252089E0,-5.210371017E-1
2.420199783E1,-4.280161381E0,3.290131092E-1,-1.274178028E-1
2.422145845E1,-3.671786308E0,-5.653043389E-1,7.202396393E-1
2.424091908E1,-2.511267424E0,-1.147956610E0,1.365703583E0
2.426037970E1,-1.058225870E0,-1.316052437E0,1.138385415E0
2.427984033E1,5.306084156E-1,-1.308874011E0,7.591229677E-1
2.429930105E1,1.847857237E0,-1.106680512E0,2.793620527E-1
2.431876168E1,2.806182861E0,-4.426721931E-1,-9.942178130E-1
2.433822230E1,3.382254839E0,5.294120312E-1,-2.210369825E0
2.435768293E1,4.756931305E0,1.201795220E0,-2.657827854E0
2.437714355E1,1.035852909E1,1.679163337E0,-3.759722471E0
2.439660418E1,3.007119942E1,4.129413605E0,8.602197170E-1
2.441606491E1,7.291349030E1,9.433105469E0,-5.423332691E0
2.443552553E1,5.143133163E1,-2.705684185E0,-1.135334492E1
2.445498616E1,2.743789864E1,2.069791555E-1,-3.522234917E0
2.447444689E1,1.960439682E1,1.056431174E0,-2.773281336E0
2.449390751E1,1.707697678E1,2.327618122E0,-2.724228621E0
2.451336814E1,1.560838223E1,2.019542217E0,-2.831307411E0
2.453282876E1,1.086221886E1,2.186441660E0,-2.653640270E0
2.455228939E1,3.951148272E0,2.028515339E0,-8.949156404E-1
2.457175012E1,-2.346760750E0,3.391826153E-1,1.511067510E0
2.459121074E1,-8.383254051E0,-2.729612350E0,2.233101845E0
2.461067137E1,-7.874181271E0,-4.792225361E0,-1.256231815E-1
2.463013199E1,-5.283950806E0,-3.416950703E0,-5.682953596E-1
2.464959262E1,-4.630710125E0,-5.180460811E-1,-5.736792088E-1
2.466905324E1,-3.264408350E0,1.587637782E0,-5.335994363E-1
2.468851397E1,-1.473978758E0,2.194218397E0,-3.511467278E-1
2.470797460E1,3.810569942E-1,2.066800594E0,-1.318445325E0
2.472743522E1,1.399801254E0,1.445264935E0,-2.295315027E0
2.474689585E1,1.590030670E0,4.115654826E-1,-2.721835852E0
2.476635647E1,1.223330617E0,-1.393819153E-1,-1.986641049E0
2.478581720E1,1.537388563E0,1.104885817E0,-7.178468108E-1
2.480527782E1,4.086941242E0,3.097508907E0,3.332005441E-1
2.482473845E1,1.133599758E1,5.322834015E0,3.801596880E0
2.484419908E1,3.749313736E1,4.281956196E0,5.404190063E0
2.486365980E1,6.947500610E1,-7.514659405E0,-8.480761528E0
2.488312043E1,3.694817352E1,-6.800402164E0,-8.925228119E0
2.490258105E1,2.081277084E1,-4.926821709E0,-5.061418056E0
2.492204168E1,1.395793247E1,-2.193022013E0,-2.743371248E0
2.494150241E1,1.123609734E1,-1.914258152E-1,-1.700100541E0
2.496096303E1,9.690931320E0,1.125823021E0,-1.663011789E0
2.498042366E1,5.432305813E0,3.300300598E0,-2.333002090E-1
2.499988428E1,-8.338986635E-1,5.209773064E0,2.154138565E0
2.501934501E1,-5.828916073E0,4.942973614E0,2.715255499E0
2.503880564E1,-6.023931026E0,1.840080619E0,5.970092416E-1
2.505826626E1,-4.767699242E0,-2.249253243E-1,-9.140582681E-1
2.507772689E1,-4.505086899E0,-9.266205430E-1,-1.412961721E0
2.509718751E1,-3.848257065E0,-9.218349457E-1,-5.216353536E-1
2.511664824E1,-2.051247120E0,-2.685943544E-1,3.726821244E-1
2.513610887E1,-2.602194548E-1,5.503492355E-1,5.790630579E-1
2.515556949E1,1.137188911E0,8.859425783E-1,2.093719877E-2
2.517503012E1,2.103291035E0,5.611169338E-1,-5.234299302E-1
2.519449074E1,2.047657967E0,-9.451649338E-2,-1.049850941E0
2.521395137E1,1.055234790E0,-6.000002623E-1,-1.768894196E0
2.523341210E1,1.554138303E0,-7.178468257E-2,-3.180659533E0
2.525287272E1,4.404588223E0,1.373480201E0,-4.447659016E0
2.527233335E1,9.132805824E0,2.472383976E0,-2.474776745E0
2.529179397E1,1.741257095E1,3.324228764E0,1.854437590E-2
2.531125470E1,3.956472397E1,5.113461971E0,1.493719578E0
2.533071634E1,6.483233643E1,2.347358942E0,-4.091726780E0
2.535017463E1,3.914059830E1,-2.261815548E0,-9.024530411E0
2.536963525E1,2.401795769E1,-7.531409264E-1,-1.679761529E0
2.538909598E1,2.293221474E1,-1.965703845E0,1.022931695E0
2.540855660E1,2.531008148E1,-4.485944271E0,-6.167500615E-1
2.542801723E1,2.155634117E1,-4.010370731E0,-2.052443504E0
2.544747786E1,1.493659687E1,-4.707878530E-1,-2.386242390E0
2.546693858E1,6.040680885E0,2.670988321E0,-1.588834286E0
2.548639921E1,-1.706680775E0,4.007379532E0,3.134597540E-1
2.550585983E1,-7.510472298E0,4.146761417E0,1.902294010E-1
2.552532046E1,-7.470990658E0,2.270190477E0,-3.787240028E0
2.554478108E1,-4.284946918E0,-1.734796353E-2,-5.596812248E0
2.556424181E1,-2.971885681E0,-7.070791125E-1,-3.172882795E0
2.558370244E1,-2.037488461E0,-7.890332937E-1,-2.135594189E-1
2.560316306E1,-6.993024349E-1,-1.026520967E0,1.353739381E0
2.562262369E1,6.526423693E-1,-9.888339639E-1,1.510469317E0
2.564208431E1,1.313659668E0,-5.377869010E-1,7.028916478E-1
2.566154504E1,1.401595831E0,1.902294010E-1,-4.701896608E-1
2.568100567E1,7.088736892E-1,5.778666735E-1,-1.103689432E0
2.570046629E1,2.069791555E-1,1.818545163E-1,-1.308275819E0
2.571992692E1,1.173081279E0,-1.890329868E-1,-8.135597110E-1
2.573938765E1,2.796611547E0,2.099701911E-1,-1.250848055E0
2.575884827E1,6.516852379E0,1.133001566E0,-2.568096876E0
2.577830890E1,1.651526260E1,1.695314884E0,1.311266780E0
2.579776952E1,5.033123016E1,-3.192623615E0,2.818745136E0
2.581723025E1,5.721298599E1,-6.429514408E0,-8.878568649E0
2.583669088E1,3.058864784E1,-9.661021233E-1,-9.232706070E0
2.585615150E1,2.062972069E1,-9.840483069E-1,-6.632904530E0
2.587561223E1,1.422951794E1,-1.915454507E0,-2.595016241E0
2.589507286E1,1.165962696E1,-1.585245013E0,-6.352944374E-1
2.591453348E1,9.748359680E0,-7.298108935E-2,1.698904037E-1
2.593399421E1,5.443671703E0,1.766501307E0,7.782655358E-1
2.595345483E1,4.516452849E-1,2.398206472E0,7.088736892E-1
2.597291546E1,-4.023531437E0,1.409970760E0,6.185446382E-1
2.599237608E1,-6.001797199E0,-3.505485058E-1,2.733799815E-1
2.601183671E1,-5.446662426E0,-1.296909928E0,-1.615155339E-1
2.603129744E1,-4.722235680E0,-1.002592683E0,-1.734796353E-2
2.605075806E1,-4.057030678E0,-4.073780477E-1,2.081755698E-1
2.607021869E1,-2.746362209E0,2.572284266E-2,6.155536175E-1
2.608967931E1,-1.562513232E0,3.684946895E-1,9.696913958E-1
2.610914004E1,-9.954141974E-1,6.765705943E-1,6.071787477E-1
2.612860067E1,-1.603191197E-1,8.997012973E-1,-1.345364571E0
2.614806129E1,1.610369682E0,9.595218897E-1,-4.497310162E0
2.616752192E1,2.663809776E0,1.145563841E0,-5.505885124E0
2.618698254E1,4.112663746E0,1.692323804E0,-4.348955154E0
2.620644327E1,7.537989616E0,2.287538528E0,-2.824128866E0
2.622590390E1,1.580878067E1,3.512663603E0,1.409372568E0
2.624536452E1,4.320001984E1,6.608976364E0,3.862613916E0
2.626482525E1,6.961019897E1,-1.310668588E0,-1.000020409E1
2.628428588E1,3.551726532E1,-4.683950424E0,-1.025803089E1
2.630374650E1,2.393600273E1,-4.007977843E-1,-4.071387768E0
2.632320723E1,2.328814697E1,3.033500910E0,2.835494876E-1
2.634266786E1,2.165205383E1,1.512862086E0,-2.588435888E0
2.636212848E1,1.630230141E1,-1.197607756E0,-4.677370071E0
2.638158921E1,1.024008465E1,-1.302891970E0,-3.357130051E0
2.640104983E1,3.117847919E0,-3.696911037E-1,-9.248259664E-1
2.642051046E1,-3.238685369E0,1.196411322E-3,3.411566973E0
2.643997108E1,-1.054158020E1,-7.974081635E-1,5.555535793E0
2.645943171E1,-7.981259823E0,-2.548356056E0,2.949153781E-1
2.647889244E1,-4.464408875E0,-2.237887383E0,-1.702493310E0
2.649835306E1,-4.744967461E0,8.925228715E-1,-1.441675663E0
2.651781369E1,-3.859024763E0,3.297309637E0,-8.931210637E-1
2.653727431E1,-1.989033818E0,3.881756544E0,-3.882354796E-1
2.655673504E1,1.680957973E-1,2.980260611E0,-4.606183469E-1
2.657619567E1,1.535593987E0,2.007578135E0,-5.599204898E-1
2.659565629E1,1.796411633E0,1.235294700E0,-5.144568682E-1
2.661511692E1,2.109871387E0,2.338984162E-1,-6.317051649E-1
2.663457765E1,3.126222849E0,-9.804590940E-1,-1.339382529E0
2.665403827E1,4.836492538E0,-1.660618901E0,-2.861217737E0
2.667349890E1,1.246182060E1,-2.188834429E0,-2.254637241E0
2.669295963E1,4.160101700E1,-4.194019794E0,5.736792088E-1
2.671242025E1,5.996712494E1,-2.757728100E0,-1.171525955E1
2.673188088E1,3.568117142E1,7.489534616E-1,-8.824729919E0
2.675134160E1,2.192722893E1,2.242074728E0,-5.714060307E0
2.677080223E1,1.734078598E1,1.569093466E0,-2.889333248E0
2.679026286E1,1.566341686E1,-9.613165259E-1,-1.796411633E0
2.680972358E1,1.254078388E1,-2.179263115E0,-1.753939033E0
2.682918421E1,7.880163193E0,-1.673181176E0,-1.378864050E0
2.684864483E1,2.663211584E0,-9.320043921E-1,-4.085744619E-1
2.686810546E1,-3.087339401E0,-4.845465720E-2,1.305284739E0
2.688756619E1,-8.215158463E0,9.020941257E-1,9.595218897E-1
2.690702681E1,-6.889534473E0,1.165304661E0,-9.601200819E-1
2.692648744E1,-5.620141983E0,1.436890006E0,-1.110867858E0
2.694594806E1,-4.477569580E0,1.417149186E0,-4.606183618E-2
2.696540879E1,-2.248655081E0,7.274180651E-1,7.704889178E-1
2.698486942E1,-1.304088384E-1,-2.871387079E-2,8.021938205E-1
2.700433004E1,1.424327731E0,-5.515456200E-1,1.980060786E-1
2.702379067E1,2.255235434E0,-9.984052777E-1,-9.302098155E-1
2.704325140E1,2.706880569E0,-8.877372146E-1,-2.115853310E0
2.706271202E1,3.117847919E0,5.443671346E-1,-2.408375978E0
2.708217265E1,2.924029350E0,2.533999205E0,-2.588435888E0
2.710163327E1,4.010969162E0,3.738187075E0,-3.364906788E0
2.712109400E1,6.733402729E0,4.177269936E0,-2.445464849E0
2.714055463E1,1.091426182E1,2.685943365E0,-6.765705943E-1
2.716001525E1,2.082772636E1,-2.183450609E-1,1.282552958E0
2.717947598E1,4.166741562E1,-1.960319996E0,1.124028444E0
2.719893660E1,5.749833298E1,-1.421336651E0,-7.143173695E0
2.721839723E1,3.538685608E1,5.437689424E-1,-8.026124954E0
2.723785796E1,2.420639229E1,2.042274237E0,-3.222533941E0
2.725731858E1,2.300519562E1,-4.977070987E-1,-2.843869686E0
2.727677921E1,2.479502678E1,-4.089334011E0,-4.757529736E0
2.729623994E1,2.000339890E1,-4.019941807E0,-3.116053343E0
2.731570056E1,1.086221886E1,-7.040880919E-1,-9.690931439E-1
2.733516119E1,2.351546526E0,2.001596212E0,5.611169338E-1
2.735462181E1,-3.484548092E0,2.858824968E0,1.597807288E0
2.737408254E1,-7.816753387E0,1.564906001E0,1.436890006E0
2.739354317E1,-7.138986588E0,-1.475175142E0,-9.236295223E-1
2.741300379E1,-4.442275047E0,-3.230310678E0,-1.406381488E0
2.743246452E1,-3.213560820E0,-2.506481647E0,-1.471585929E-1
2.745192515E1,-2.205584288E0,-8.997012973E-1,6.592226624E-1
2.747138577E1,-4.995017350E-1,3.134597540E-1,9.020941257E-1
2.749084640E1,1.429113269E0,1.218544960E0,3.583251834E-1
2.751030713E1,2.581257343E0,1.749153376E0,-8.967102766E-1
2.752976775E1,2.522633314E0,2.361716032E0,-1.761117458E0
2.754922838E1,1.389631748E0,2.532204628E0,-2.046461582E0
2.756868910E1,3.678964674E-1,1.861616015E0,-2.562114954E0
2.758814973E1,8.356932998E-1,1.252642632E0,-3.640679598E0
2.760761036E1,2.684746981E0,1.745564103E0,-4.046861172E0
2.762707098E1,7.090531826E0,2.371885538E0,-2.138585329E0
2.764653171E1,2.403889465E1,2.302493572E0,7.693522930E0
2.766599233E1,6.299883270E1,-5.625525951E0,3.080160856E0
2.768545306E1,4.987958527E1,-1.244686508E1,-9.952347755E0
2.770491369E1,2.626960373E1,-3.739383698E0,-5.316253662E0
2.772437431E1,1.941356850E1,1.992623091E0,-3.163909674E0
2.774383504E1,1.736710739E1,3.494717360E0,-1.078564763E0
2.776329567E1,1.264427280E1,1.444666624E0,-9.224331379E-1
2.778275640E1,8.420941353E0,-3.541377485E-1,-1.293320656E0
2.780221702E1,4.010370731E0,-6.777670383E-1,-1.916052699E0
2.782167765E1,-9.200403094E-1,-2.213360965E-1,-1.916052699E0
2.784113838E1,-6.448657036E0,4.654040039E-1,-5.228317380E-1
2.786059900E1,-8.684749603E0,1.083350420E0,-7.746763229E-1
2.788005963E1,-6.416952133E0,1.400997639E0,-6.586244106E-1
2.789952025E1,-4.847858906E0,1.296311617E0,5.174478889E-1
2.791898098E1,-2.993421078E0,9.487541914E-1,1.088734269E0
2.793844160E1,-1.238285661E0,3.625126183E-1,1.135394335E0
2.795790223E1,-8.135596663E-2,-4.187439568E-3,1.069591761E0
2.797736296E1,8.285148144E-1,6.999006122E-2,4.689932466E-1
2.799682358E1,1.301695466E0,3.080759048E-1,-9.696913958E-1
2.801628421E1,1.552343726E0,6.011967063E-1,-3.112463951E0
2.803574483E1,1.511067510E0,1.104287624E0,-4.703691006E0
2.805520556E1,1.935793519E0,1.566102386E0,-4.765306473E0
2.807466619E1,3.913461447E0,2.320439816E0,-2.191825628E0
2.809412681E1,8.298309326E0,2.694916487E0,1.130010486E0
2.811358754E1,2.299981117E1,1.654636860E0,6.925426960E0
2.813304817E1,5.726981735E1,-1.956730723E0,2.084746838E0
2.815250890E1,5.965246964E1,-6.355337143E0,-1.411585903E1
2.817196952E1,3.090390205E1,1.593021631E0,-6.736393929E0
2.819143015E1,2.430868530E1,7.696514130E0,-8.123632669E-1
2.821089088E1,2.301416779E1,6.141179085E0,-7.417750359E-1
2.823035150E1,2.009671974E1,4.666004330E-2,-1.357328653E0
2.824981223E1,1.462134266E1,-2.261217356E0,-3.272184849E0
2.826927286E1,8.672187805E0,-7.453642488E-1,-4.117449760E0
2.828873348E1,2.412563324E0,1.675574064E0,-2.268395901E0
2.830819421E1,-4.081557274E0,3.749552965E0,1.674975872E0
2.832765483E1,-1.038185883E1,5.255236626E0,2.660818815E0
2.834711546E1,-7.547560692E0,2.286342144E0,-1.482353687E0
2.836657608E1,-5.933003902E0,-1.059422255E0,-2.082952023E0
2.838603681E1,-5.470590591E0,-1.890928149E0,-1.421934843E0
2.840549744E1,-3.900899172E0,-1.686341763E0,-4.773681164E-1
2.842495806E1,-1.690529227E0,-1.804786444E0,4.241278172E-1
2.844441879E1,2.632105052E-1,-1.722234130E0,6.191428304E-1
2.846387942E1,1.366899967E0,-1.516451359E0,1.920240223E-1
2.848334004E1,2.128415823E0,-1.355534077E0,-9.182456732E-1
2.850280077E1,3.327818155E0,-2.943171859E-1,-1.345364571E0
2.852226140E1,4.808975220E0,1.576870084E0,-3.308077157E-1
2.854172202E1,7.040282249E0,3.906881094E0,-2.739782035E-1
2.856118275E1,1.622154236E1,5.410770416E0,2.296511650E0
2.858064338E1,5.164967346E1,-1.196411371E0,-2.242074728E0
2.860010411E1,6.033681870E1,-8.814560890E0,-1.451845169E1
2.861956473E1,3.182693481E1,-6.650850773E0,-7.789236069E0
2.863902536E1,2.071047783E1,-3.434896946E0,-3.527020693E0
2.865848608E1,1.603011703E1,1.651047617E-1,-1.267597795E0
2.867794671E1,1.287039471E1,1.347757339E0,-7.417750359E-1
2.869740744E1,8.782257080E0,1.761117458E0,-6.831508875E-1
2.871686806E1,3.978665829E0,1.911865234E0,-1.704886109E-1
2.873632869E1,-8.141579032E-1,1.942971945E0,5.665007830E-1
2.875578942E1,-5.444868088E0,2.070389748E0,7.304090858E-1
2.877525004E1,-6.754340172E0,1.715653777E0,-7.806583643E-1
2.879471067E1,-6.062814236E0,7.992027402E-1,-1.653440475E0
2.881417140E1,-5.385645390E0,5.623133108E-2,-7.668996453E-1
2.883363202E1,-4.244269371E0,-1.543370634E-1,6.197410822E-1
2.885309265E1,-2.222334146E0,-5.036891699E-1,1.721635938E0
2.887255338E1,-1.920240223E-1,-7.633104324E-1,1.553540111E0
2.889201400E1,9.726824164E-1,-3.074777126E-1,-1.292124242E-1
2.891147463E1,1.653440475E0,1.183250785E0,-2.362314224E0
2.893093536E1,1.583450437E0,3.262015581E0,-4.080360889E0
2.895039598E1,1.395015597E0,4.292723656E0,-5.395814896E0
2.896985660E1,3.960121393E0,3.394218922E0,-6.427719593E0
2.898931733E1,6.136393547E0,1.494915962E0,-4.256233215E0
2.900877796E1,9.056235313E0,-7.776673883E-2,-2.227717876E0
2.902823858E1,1.592901993E1,-1.003190875E0,7.130611539E-1
2.904769931E1,3.249034500E1,-1.213161111E0,1.772483349E0
2.906715994E1,5.705386353E1,-2.497508526E0,-2.911466837E0
2.908662056E1,3.699483109E1,-2.888136864E0,-7.355536938E0
2.910608129E1,2.357707977E1,3.232703447E0,-5.124229908E0
2.912554192E1,2.599203682E1,6.235097408E0,-2.551945448E0
2.914500265E1,2.777947426E1,2.871387243E0,-4.011567116E0
2.916446327E1,2.507857513E1,-2.116451740E0,-6.072983742E0
2.918392390E1,1.841635895E1,-4.209573269E0,-3.744169235E0
2.920338463E1,9.252447128E0,-2.203789711E0,5.042873621E-1
2.922284525E1,2.191227436E0,2.937189937E-1,3.387638569E0
2.924230588E1,-2.580659151E0,9.996016622E-1,4.077968121E0
2.926176661E1,-6.522236347E0,4.247260094E-2,1.237687469E0
2.928122723E1,-6.017949104E0,-3.756731451E-1,-1.926222205E0
2.930068796E1,-4.186841488E0,6.693921089E-1,-2.706880569E0
2.932014858E1,-3.434896946E0,1.605584025E0,-1.643869162E0
2.933960921E1,-2.852842808E0,1.806581140E0,-4.121637046E-1
2.935906994E1,-1.330409408E0,1.396211982E0,1.345962733E-1
2.937853056E1,3.906283081E-1,5.443671346E-1,2.171486616E-1
2.939799119E1,1.597807288E0,-3.571287692E-1,-7.298108935E-2
2.941745192E1,1.914258122E0,-4.444667995E-1,-1.076171994E0
2.943691254E1,1.181456208E0,2.213360965E-1,-1.868794441E0
2.945637317E1,2.823530734E-1,5.796613097E-1,-1.778465390E0
2.947583390E1,4.947160780E-1,5.455635786E-1,-2.231307030E0
2.949529452E1,1.969891191E0,1.183848977E0,-2.593221426E0
2.951475525E1,5.825326920E0,1.692323804E0,-2.320439816E0
2.953421588E1,1.791267014E1,3.415156126E0,3.683750391E0
2.955367661E1,5.672963715E1,2.678765059E0,1.889731646E0
2.957313723E1,5.402754211E1,-6.309873104E0,-1.082453156E1
2.959259786E1,3.026860809E1,-2.908475876E0,-7.872984886E0
2.961205858E1,1.951227188E1,-2.129612207E0,-3.752544165E0
2.963151921E1,1.519681644E1,-2.228316069E0,6.550351977E-1
2.965097994E1,1.266341591E1,-2.276172638E0,8.602197170E-1
2.967044056E1,9.394221306E0,-1.135394335E0,-1.525424421E-1
2.968990129E1,4.998008251E0,5.682953596E-1,-6.346961856E-1
2.970936192E1,5.617151260E-1,1.561316729E0,7.118647546E-2
2.972882254E1,-4.578666210E0,2.260020971E0,1.161117196E0
2.974828327E1,-6.501897335E0,2.916252613E0,6.861419082E-1
2.976774390E1,-5.086542606E0,2.404188633E0,-5.623133108E-2
2.978720452E1,-4.364508629E0,1.077966571E0,9.511470050E-2
2.980666525E1,-3.564109325E0,-3.086741269E-1,4.725824594E-1
2.982612588E1,-2.444268227E0,-1.188036442E0,4.157529473E-1
2.984558650E1,-8.057830334E-1,-1.184447169E0,-4.187439568E-3
2.986504723E1,6.173482537E-1,-6.502495408E-1,-2.967100143E-1
2.988450786E1,1.131805062E0,-9.511470050E-2,-1.036092162E0
2.990396858E1,1.344766378E0,6.598208547E-1,-2.437688112E0
2.992342921E1,1.780858278E0,1.521835208E0,-2.784049034E0
2.994288983E1,3.777070522E0,2.437089920E0,-3.110071182E0
2.996235056E1,7.655237675E0,3.812364578E0,-2.385046005E0
2.998181119E1,1.558445358E1,6.632306099E0,-9.421738982E-1
3.000127192E1,3.959343719E1,1.074855900E1,3.455834150E0
3.002073254E1,6.604907990E1,-2.943171859E-1,-7.530810833E0
3.004019327E1,4.056013870E1,-7.124629498E0,-1.209212875E1
3.005965390E1,2.644128799E1,-6.269195080E-1,-3.300898790E0
3.007911463E1,2.213121605E1,2.018345833E0,1.272981644E0
3.009857525E1,2.342513466E1,1.819143414E0,-2.039283037E0
3.011803588E1,1.879382706E1,1.860419661E-1,-4.182653904E0
3.013749661E1,1.073838997E1,-8.973085321E-3,-2.355733871E0
3.015695723E1,3.487539053E0,-4.247260094E-2,6.993024349E-1
3.017641796E1,-3.462414265E0,-6.490531564E-1,2.271386862E0
3.019587858E1,-9.555737495E0,-1.441077471E0,-6.005984545E-1
3.021533921E1,-6.936194420E0,-1.424925923E0,-4.554139614E0
3.023479994E1,-5.805585861E0,-3.750749528E-1,-2.522633314E0
3.025426056E1,-6.342774391E0,5.676971674E-1,-3.409772217E-1
3.027372129E1,-4.380061626E0,5.365904570E-1,-4.666004330E-2
3.029318192E1,-1.332802176E0,5.084748194E-2,1.238285750E-1
3.031264254E1,1.205982566E0,-3.870390654E-1,5.204389095E-1
3.033210327E1,2.126022816E0,-8.548358679E-1,7.710871100E-1
3.035156390E1,1.743171334E0,-1.389631748E0,4.534398913E-1
3.037102452E1,1.126421213E0,-2.022533417E0,1.615155302E-2
3.039048525E1,1.609173179E0,-2.185843468E0,-4.839483798E-1
3.040994588E1,4.542175770E0,-6.197410822E-1,-1.361516118E0
3.042940660E1,1.482413483E1,3.309273720E0,6.819544435E-1
3.044886723E1,5.079483795E1,6.624529362E0,6.038288116E0
3.046832796E1,6.168457413E1,8.530412912E-1,-1.330289745E1
3.048778858E1,3.632723618E1,-6.229115486E0,-1.169372463E1
3.050724931E1,1.949432564E1,-4.499104977E0,-7.028318405E0
3.052670994E1,1.097886848E1,-1.757528186E0,-3.689134359E0
3.054617056E1,7.907680511E0,2.327020019E-1,3.541377485E-1
3.056563129E1,6.380461693E0,8.135597110E-1,1.317847013E0
3.058509192E1,3.387040377E0,1.389631748E0,1.001994491E0
3.060455265E1,-1.521835208E0,2.362912416E0,1.189232826E0
3.062401327E1,-6.251249313E0,2.759522676E0,6.622136831E-1
3.064347390E1,-6.466603279E0,2.033899307E0,-1.225125194E0
3.066293463E1,-5.309673309E0,1.008574724E0,-1.295115232E0
3.068239525E1,-4.208376884E0,1.357926875E-1,-2.135594189E-1
3.070185598E1,-2.380858421E0,-2.841476798E-1,4.959124923E-1
3.072131661E1,-4.277170599E-1,-3.750749528E-1,7.950153351E-1
3.074077723E1,9.607182741E-1,-2.243271172E-1,8.841479421E-1
3.076023796E1,2.115255117E0,-2.141576260E-1,3.936193287E-1
3.077969858E1,2.706282377E0,-6.424728632E-1,-3.008974493E-1
3.079915921E1,2.242074728E0,-1.094118118E0,-1.434497118E0
3.081861994E1,1.610369682E0,-8.931210637E-1,-3.118446112E0
3.083808056E1,3.124428272E0,5.437689424E-1,-4.402195454E0
3.085754129E1,7.038487911E0,1.705484390E0,-4.264608383E0
3.087700192E1,1.261316681E1,2.233700037E0,-3.357130051E0
3.089646254E1,2.595075989E1,2.904886723E0,5.850451589E-1
3.091592327E1,5.720281982E1,5.654838085E0,-1.619940877E0
3.093538390E1,5.849434280E1,1.817348838E0,-1.074377346E1
3.095484463E1,2.913142014E1,3.750749528E-1,-5.730212212E0
3.097430525E1,2.070629120E1,-3.708875179E-1,-2.377867460E0
3.099376598E1,2.042752647E1,-1.885544300E0,-2.563311338E0
3.101322661E1,1.749332809E1,-1.206580877E0,-3.270390272E0
3.103268733E1,1.220160103E1,1.441077471E0,-3.201596737E0
3.105214796E1,6.161518097E0,4.727619171E0,-1.962114573E0
3.107160858E1,-6.251249313E-1,6.570691109E0,1.338186026E0
3.109106931E1,-5.455037594E0,6.285346985E0,1.743769526E0
3.111052994E1,-5.054837704E0,1.795215130E0,-1.771885157E0
3.112999067E1,-4.332803726E0,-2.763111830E0,-3.065205812E0
3.114945129E1,-4.670191765E0,-4.224528313E0,-2.090728760E0
3.116891192E1,-3.865604877E0,-3.814159393E0,-6.173482537E-1
3.118837265E1,-2.074577332E0,-2.714657307E0,8.572286963E-1
3.120783327E1,-7.058826834E-2,-2.045265198E0,1.314856052E0
3.122729400E1,9.499505758E-1,-1.715653777E0,7.872386575E-1
3.124675463E1,1.333998680E0,-1.421336651E0,-3.050848842E-1
3.126621525E1,1.440479279E0,-9.726824164E-1,-6.987041831E-1
3.128567598E1,2.207378864E0,-5.641079545E-1,-5.000999570E-1
3.130513660E1,2.871985435E0,4.995017350E-1,-6.975077987E-1
3.132459733E1,5.107480049E0,2.090130568E0,-2.302493572E0
3.134405796E1,1.231525993E1,5.116453171E0,-2.419143677E0
3.136351869E1,3.681537247E1,5.517251015E0,5.854638577E0
3.138297931E1,6.451708221E1,-2.541775942E0,-5.508277893E0
3.140244004E1,3.946601868E1,-5.481956482E0,-8.448458672E0
3.142190067E1,2.499123764E1,-3.437289715E0,-7.489534616E-1
3.144136140E1,1.719721603E1,9.631111026E-1,1.991426587E0
3.146082202E1,1.249711418E1,2.345564365E0,-3.026920557E-1
3.148028275E1,8.663214684E0,1.327418327E0,-2.713460922E0
3.149974338E1,5.106881618E0,9.547362328E-1,-2.903092146E0
3.151920411E1,1.807179332E0,1.147956610E0,-2.081157446E0
3.153866473E1,-2.648854733E0,1.814357758E0,-8.554341197E-1
3.155812546E1,-6.689135551E0,2.519642353E0,-6.406782866E-1
3.157758608E1,-6.442076683E0,1.538584948E0,-6.891329288E-1
3.159704671E1,-5.550152302E0,4.360919297E-1,3.170489967E-1
3.161650744E1,-4.104289055E0,-7.657032609E-1,2.338984162E-1
3.163596806E1,-2.417947292E0,-1.859821439E0,-4.229314029E-1
3.165542879E1,5.922235921E-2,-2.104487419E0,3.290131316E-2
3.167488942E1,1.852642894E0,-1.182054400E0,3.122633696E-1
3.169435004E1,2.271985054E0,-2.524427772E-1,2.991028363E-3
3.171381077E1,1.847857237E0,-4.133601189E-1,-2.062014818E0
3.173327140E1,1.293918848E0,-4.307080805E-1,-2.753540754E0
3.175273213E1,1.291526079E0,9.690931439E-2,-2.836691141E0
3.177219275E1,2.986242771E0,1.677368641E0,-1.670190215E0
3.179165348E1,7.094718933E0,3.384049416E0,-8.183453679E-1
3.181111410E1,1.632981873E1,6.188437462E0,2.452044964E0
3.183057483E1,3.702713394E1,1.401356602E1,1.841875196E0
3.185003546E1,6.087520218E1,5.163711071E0,-9.314062119E0
3.186949619E1,4.354219437E1,-6.156732559E0,-9.982257843E0
3.188895681E1,2.938984489E1,-5.184648514E0,-8.638089895E-1
3.190841754E1,2.477109909E1,-4.195216179E0,2.580659151E0
3.192787817E1,2.336052895E1,2.368894368E-1,5.868397355E-1
3.194733890E1,1.785584068E1,2.773879766E0,-1.872383714E0
3.196679952E1,9.919445992E0,3.608974695E0,-2.352742910E0
3.198626025E1,2.141576290E0,3.824328899E0,-1.605584025E0
3.200572088E1,-4.185046673E0,2.783450842E0,-5.371887088E-1
3.202518160E1,-9.803992271E0,8.787640929E-1,-1.166501045E-1
3.204464223E1,-7.426723480E0,-1.182652593E0,-2.436491728E0
3.206410286E1,-4.647459984E0,-1.774876237E0,-1.566700578E0
3.208356358E1,-4.404588223E0,-8.440681696E-1,3.667000830E-1
3.210302421E1,-3.139981508E0,9.212367237E-2,9.529415965E-1
3.212248494E1,-1.307079315E0,1.280160099E-1,9.200403094E-1
3.214194556E1,7.776673436E-1,-5.114658475E-1,2.925225794E-1
3.216140629E1,2.246262312E0,-7.411768436E-1,-6.376872063E-1
3.218086692E1,2.738585472E0,-1.686939895E-1,-1.576870084E0
3.220032754E1,2.594418049E0,7.710871100E-1,-1.822134495E0
3.221978827E1,2.269592285E0,1.385444283E0,-1.286740422E0
3.223924890E1,3.225524902E0,2.214557409E0,-2.093121529E0
3.225870963E1,7.054639339E0,3.681955814E0,-1.820937991E0
3.227817025E1,1.912643051E1,5.738586903E0,3.655634880E0
3.229763098E1,6.126702881E1,4.187439442E0,1.220937729E0
3.231709171E1,5.630610657E1,-1.017308521E1,-1.171047401E1
3.233655233E1,3.056472015E1,-8.006384850E0,-4.195814610E0
3.235601306E1,1.681675720E1,-4.600799561E0,-8.075776696E-1
3.237547369E1,1.137906837E1,-1.454237938E0,6.119644046E-1
3.239493442E1,8.681758881E0,7.345965505E-1,4.157529473E-1
3.241439504E1,6.641877651E0,1.924427629E0,1.854437590E-1
3.243385577E1,3.239283562E0,2.239083767E0,-2.608176768E-1
3.245331640E1,-1.218544960E0,1.719841242E0,-8.883354068E-1
3.247277713E1,-6.015556335E0,1.168893814E0,-1.447059512E0
3.249223775E1,-6.496513367E0,6.281159520E-1,-1.912463546E0
3.251169848E1,-5.618347645E0,4.821537733E-1,-1.010967612E0
3.253115910E1,-4.529015064E0,1.992024779E-1,8.315058798E-2
3.255061973E1,-2.609971285E0,3.469592705E-2,5.611169338E-1
3.257008046E1,-5.772684813E-1,1.076770201E-1,7.447660565E-1
3.258954108E1,1.174875975E0,4.965106845E-1,6.789634228E-1
3.260900181E1,2.042274237E0,7.645068169E-1,2.739782035E-1
3.262846244E1,2.519642353E0,6.251249313E-1,-5.395814776E-1
3.264792317E1,2.676372051E0,4.498506486E-1,-1.363310695E0
3.266738379E1,2.297109842E0,4.851447940E-1,-1.915454507E0
3.268684452E1,4.286143780E0,1.302891970E0,-3.400799274E0
3.270630515E1,7.444669247E0,2.022533417E0,-4.320241451E0
3.272576588E1,1.189472103E1,2.456830740E0,-4.481756687E0
3.274522650E1,2.244587326E1,2.801397085E0,7.238288522E-1
3.276468723E1,4.285366058E1,2.149353027E0,1.015753269E0
3.278414786E1,5.522754288E1,-1.377667665E0,-1.077787113E1
3.280360858E1,3.267040253E1,5.521438122E-1,-1.119661522E1
3.282306921E1,2.310928345E1,4.112065792E0,-5.959324837E0
3.284252994E1,2.268156624E1,4.205984116E0,-2.721835852E0
3.286199056E1,2.202593231E1,1.021735311E0,-3.332005501E0
3.288145129E1,1.876930046E1,-8.267202377E-1,-3.903291941E0
3.290091192E1,1.243848991E1,1.962114573E-1,-2.155933142E0
3.292037265E1,3.668197155E0,1.792822361E0,1.703091502E0
3.293983327E1,-4.875974178E0,1.935195327E0,5.208576679E0
3.295929400E1,-8.851051331E0,-3.314059377E-1,1.433300734E0
3.297875463E1,-5.813961029E0,-2.614158630E0,-4.773681164E0
3.299821536E1,-2.627319336E0,-2.231307030E0,-5.224728107E0
3.301767598E1,-2.483749866E0,-3.535395563E-1,-1.581655741E0
3.303713671E1,-2.368296146E0,8.829515576E-1,1.685145378E0
3.305659733E1,-6.897311211E-1,6.352944374E-1,2.309672117E0
3.307605806E1,1.199402332E0,-2.303091735E-1,1.402792215E0
3.309551869E1,2.557927370E0,-6.502495408E-1,4.833501875E-1
3.311497931E1,2.537588358E0,-5.575276613E-1,-2.949153781E-1
3.313444004E1,1.176670551E0,-4.564309120E-1,-1.118644595E0
3.315390077E1,4.935196638E-1,-5.102694035E-1,-2.456232548E0
3.317336140E1,1.790429592E0,-2.991028363E-3,-4.271188259E0
3.319282202E1,4.171288013E0,9.936196208E-1,-5.714060307E0
3.321228275E1,1.097228813E1,2.533401012E0,-4.083351612E0
3.323174348E1,3.733521271E1,3.811168194E0,7.929215908E0
3.325120410E1,7.243253326E1,-1.248455167E0,-7.247261524E0
3.327066483E1,4.005884171E1,-8.003992081E0,-1.160698414E1
3.329012546E1,2.058066750E1,-4.530809879E0,-5.866004944E0
3.330958619E1,1.268674564E1,-2.074577332E0,-3.509672642E0
3.332904692E1,9.081359863E0,-3.505485058E-1,-1.611566067E0
3.334850754E1,7.158128738E0,3.541377485E-1,-5.282155871E-1
3.336796827E1,4.794618607E0,1.420738459E0,-4.199403822E-1
3.338742890E1,-2.751746029E-2,2.599203587E0,-1.794617027E-1
3.340688963E1,-6.267998695E0,3.042474031E0,-1.004985496E-1
3.342635025E1,-7.450651646E0,1.850250125E0,-1.680957913E0
3.344581098E1,-5.309673309E0,-7.477571070E-2,-1.766501307E0
3.346527161E1,-4.322035789E0,-1.020538807E0,-2.775674164E-1
3.348473233E1,-3.417548895E0,-9.290133715E-1,8.183453679E-1
3.350419296E1,-1.761715651E0,-6.460621357E-1,1.335793257E0
3.352365369E1,-7.896314561E-2,-1.022931710E-1,1.177866936E0
3.354311431E1,6.933203340E-1,5.186443329E-1,3.649054468E-1
3.356257504E1,9.050851464E-1,8.494520187E-1,-1.493719578E0
3.358203567E1,1.254437327E0,1.103091240E0,-3.683750391E0
3.360149640E1,2.005185366E0,1.366899967E0,-4.444668293E0
3.362095702E1,3.990031719E0,2.104487419E0,-3.227917671E0
3.364041775E1,8.398807526E0,3.491726398E0,-2.458625287E-1
3.365987838E1,2.257807541E1,6.650850773E0,3.016152859E0
3.367933911E1,6.061079407E1,7.828119278E0,-1.421934843E0
3.369879973E1,5.991867065E1,-7.193423271E0,-1.348235893E1
3.371826046E1,3.306282806E1,-2.694318295E0,-5.516652584E0
3.373772119E1,2.331027985E1,-1.495514158E-2,1.574477315E0
3.375718181E1,2.087438583E1,2.673979402E-1,-2.219343036E-1
3.377664254E1,1.596192169E1,-1.377069473E0,-3.091526747E0
3.379610317E1,9.015557289E0,-8.063812256E-1,-2.638685226E0
3.381556390E1,2.217548370E0,1.362114310E0,-1.290329576E0
3.383502452E1,-3.881756544E0,2.704487801E0,6.532405615E-1
3.385448525E1,-7.920841217E0,2.178664923E0,6.047859192E-1
3.387394588E1,-6.184848309E0,-1.477568001E-1,-1.147358418E0
3.389340660E1,-5.654838085E0,-1.453639746E0,-1.016351461E0
3.391286723E1,-4.988437176E0,-8.650053740E-1,-2.500499785E-1
3.393232796E1,-3.077169895E0,-3.020938635E-1,3.936193287E-1
3.395178858E1,-9.397810698E-1,-2.327020019E-1,6.957131624E-1
3.397124931E1,8.327022791E-1,-3.702892959E-1,6.580262184E-1
3.399070994E1,1.752742529E0,-4.570291340E-1,2.560320199E-1
3.401017067E1,1.850848317E0,-2.973082066E-1,-4.438686073E-1
3.402963129E1,1.311266780E0,-1.513460279E-1,-1.744367719E0
3.404909202E1,9.780662656E-1,-1.429711580E-1,-2.286940336E0
3.406855265E1,2.177468538E0,6.747759581E-1,-2.258824587E0
3.408801338E1,5.356931686E0,1.560718536E0,-1.405185103E0
3.410747410E1,1.192343521E1,3.044866800E0,-1.514058471E0
3.412693473E1,3.905924225E1,7.112067223E0,6.508477330E-1
3.414639546E1,5.712445450E1,1.275374413E0,-7.342974663E0
3.416585608E1,3.602095413E1,-3.967299938E0,-6.361319065E0
3.418531681E1,2.571686172E1,-3.941577196E0,-1.626521230E0
3.420477754E1,2.407059860E1,-3.607180119E0,1.561915040E0
3.422423817E1,2.202174568E1,8.255238086E-2,8.889335990E-1
3.424369890E1,1.666959953E1,1.654636860E0,-1.953141451E0
3.426315952E1,1.075394344E1,1.387837172E0,-2.791825771E0
3.428262025E1,5.432903767E0,6.484549642E-1,-1.847857237E0
3.430208098E1,7.573283911E-1,-4.360919297E-1,-8.255237937E-1
3.432154160E1,-4.232903481E0,-9.451649189E-1,-2.566302419E-1
3.434100233E1,-7.555935860E0,-4.701896608E-1,-1.070189953E0
3.436046296E1,-6.516254425E0,6.735795736E-1,-1.757528186E0
3.437992369E1,-4.485944271E0,1.615753531E0,-8.841479421E-1
3.439938431E1,-2.697309256E0,1.441077471E0,5.264209956E-2
3.441884504E1,-7.621139884E-1,6.616154313E-1,5.808576941E-1
3.443830567E1,8.901300430E-1,-1.244267747E-1,1.055234790E0
3.445776640E1,2.133799553E0,-6.891329288E-1,1.261615753E0
3.447722702E1,2.567498684E0,-9.248259664E-1,1.156331539E0
3.449668775E1,2.302493572E0,-1.051047325E0,-3.290131092E-1
3.451614838E1,1.861017823E0,-7.244270444E-1,-3.373281717E0
3.453560910E1,1.349551916E0,5.174478889E-1,-4.210769653E0
3.455506973E1,1.355534077E0,1.899901152E0,-2.151147604E0
3.457453046E1,3.381058455E0,3.046661377E0,-2.291127741E-1
3.459399108E1,9.034101486E0,3.844667673E0,-1.882553220E0
3.461345181E1,1.929631996E1,4.890929699E0,1.416550994E0
3.463291254E1,4.599962234E1,6.990033150E0,4.158127785E0
3.465237317E1,7.077490997E1,-8.111668825E-1,-9.249456406E0
3.467183390E1,3.795734406E1,-4.443471432E0,-8.641080856E0
3.469129452E1,2.273899269E1,-1.296909928E0,-5.441876888E0
3.471075525E1,2.059622002E1,1.773679733E0,-3.584448338E0
3.473021598E1,1.691845322E1,2.095514536E0,-1.142572761E0
3.474967661E1,9.892526627E0,1.612164259E0,1.076171994E0
3.476913733E1,1.722234130E0,1.019342422E0,3.031706333E0
3.478859796E1,-5.103292465E0,-1.674975902E-1,3.797409534E0
3.480805869E1,-7.327421188E0,-1.826321840E0,7.286145091E-1
3.482751931E1,-3.811766386E0,-2.310868502E0,-2.218744755E0
3.484698004E1,-2.323430777E0,-7.956135273E-1,-2.000998020E0
3.486644077E1,-2.632703066E0,3.708875179E-1,-5.192425251E-1
3.488590140E1,-1.778465390E0,7.609176040E-1,9.918249846E-1
3.490536213E1,-2.997010350E-1,7.423732281E-1,1.478166223E0
3.492482275E1,1.268195987E0,5.198407173E-1,7.740781307E-1
3.494428348E1,2.132004976E0,2.961117923E-1,-6.801598072E-1
3.496374410E1,1.731207132E0,3.296113312E-1,-2.364706993E0
3.498320483E1,8.685946465E-1,1.113260746E0,-2.719442844E0
3.500266546E1,1.380658627E0,2.487339020E0,-1.045065284E0
3.502212619E1,4.217947960E0,3.674179077E0,1.197009563E0
3.504158692E1,9.224929810E0,4.886742115E0,1.016949654E0
3.506104754E1,1.631127357E1,2.809173822E0,-3.008376360E0
3.508050827E1,3.022852898E1,-3.446861029E0,-4.405784607E0
3.509996900E1,3.352823257E1,-7.448258877E0,-6.384050846E0
3.511942963E1,2.240459633E1,-5.906682491E0,-3.744767308E-1
3.513889036E1,1.434078407E1,-3.308077335E0,3.042474031E0
3.515835098E1,1.400459290E1,-2.314457655E0,-6.239284873E-1
3.517781171E1,1.274716473E1,-1.101894855E0,-2.629113913E0
3.519727244E1,1.087059307E1,1.585244983E-1,-8.979067206E-1
3.521673306E1,8.493922234E0,1.449452281E0,-1.400399446E0
3.523619379E1,6.595815659E0,2.460419893E0,-3.349951804E-1
3.525565452E1,4.521836758E0,2.469393015E0,2.255235434E0
3.527511515E1,4.162913322E0,9.780662656E-1,3.078366280E0
3.529457588E1,5.507081509E0,-1.980060786E-1,1.597807288E0
3.531403650E1,7.884948730E0,-1.441077471E0,-3.128615618E-1
3.533349723E1,1.056490993E1,-2.236092806E0,-1.788036704E0
3.535295796E1,1.273161125E1,-1.752742529E0,-1.858624935E0
3.537241858E1,1.368215942E1,-3.050848842E-1,-6.544370055E-1
3.539187931E1,1.301396370E1,8.973084688E-1,4.683950245E-1
3.541133994E1,1.123011494E1,1.143769264E0,4.749752879E-1
3.543080067E1,9.787242889E0,8.231309652E-1,1.316052489E-2
3.545026140E1,8.802596092E0,4.989035130E-1,-2.512463629E-1
3.546972202E1,8.175676346E0,3.894318938E-1,-1.818545163E-1
3.548918275E1,8.164909363E0,4.719842672E-1,1.298106313E-1
3.550864348E1,8.786444664E0,6.699903607E-1,4.049852192E-1
3.552810411E1,9.369096756E0,8.805587292E-1,3.990031779E-1
3.554756483E1,9.868000984E0,7.986045480E-1,2.584248483E-1
3.556702546E1,1.028016472E1,2.751746178E-1,1.800599098E-1
3.558648619E1,1.044467068E1,-3.194418252E-1,8.135596663E-2
3.560594692E1,1.033938694E1,-6.634100676E-1,-1.914258115E-2
3.562540754E1,1.007318497E1,-7.908278704E-1,6.580262445E-3
3.564486827E1,9.801001549E0,-6.873382926E-1,1.148554832E-1
3.566432900E1,9.620343208E0,-5.138586760E-1,2.715853751E-1
3.568378963E1,9.616754532E0,-4.265206456E-1,3.589234054E-1
3.570325036E1,9.750154495E0,-3.978067636E-1,5.054838061E-1
3.572271098E1,9.745966911E0,-3.601198196E-1,6.143572330E-1
3.574217171E1,9.756733894E0,-4.606183469E-1,5.730810165E-1
3.576163244E1,9.799206734E0,-6.317051649E-1,4.779663086E-1
3.578109306E1,9.760323524E0,-7.304090858E-1,3.218346536E-1
3.580055379E1,9.737591743E0,-7.064808607E-1,1.788634956E-1
3.582001452E1,9.798010826E0,-6.257231236E-1,2.207378894E-1
3.583947515E1,9.869794846E0,-4.061816335E-1,3.631108403E-1
3.585893588E1,9.864411354E0,-1.393819153E-1,4.396811724E-1
3.587839660E1,9.784850121E0,6.580262445E-3,4.307080805E-1
3.589785723E1,9.692726135E0,1.058823988E-1,3.756731451E-1
3.591731796E1,9.608379364E0,1.704886109E-1,2.057827413E-1
3.593677869E1,9.572486877E0,1.322034448E-1,2.991028316E-2
3.595623931E1,9.627521515E0,1.154536903E-1,-1.142572835E-1
3.597570004E1,9.728618622E0,9.990034252E-2,-1.752742529E-1
3.599516067E1,9.789037704E0,-2.512463741E-2,-2.380858511E-1
3.601462140E1,9.765109062E0,-2.452643216E-2,-3.517449200E-1
3.603408213E1,9.902696609E0,1.615155339E-1,-5.964110494E-1
3.605354275E1,1.009771156E1,2.081755698E-1,-7.974081635E-1
3.607300348E1,1.045603657E1,2.452643216E-1,-1.147358418E0
3.609246421E1,1.073180962E1,3.762713671E-1,-1.499103427E0
3.611192483E1,1.057507992E1,3.320041299E-1,-1.514058471E0
3.613138556E1,1.008574772E1,1.058823988E-1,-1.581057549E0
3.615084629E1,9.559925079E0,3.888336942E-2,-1.783849239E0
3.617030692E1,9.340383530E0,2.991028428E-1,-1.917249203E0
3.618976765E1,9.317651749E0,5.306084156E-1,-1.883749604E0
3.620922838E1,9.471988678E0,5.210371017E-1,-1.800599098E0
3.622868900E1,9.675976753E0,3.248256743E-1,-1.686939955E0
3.624814973E1,9.851250648E0,1.423729509E-1,-1.594816327E0
3.626761046E1,9.871589661E0,1.076770201E-1,-1.470987678E0
3.628707108E1,9.855438232E0,1.232303679E-1,-1.311266780E0
3.630653181E1,9.901499748E0,2.763710022E-1,-1.286740422E0
3.632599254E1,1.002652550E1,4.875376225E-1,-1.284945726E0
3.634545317E1,1.004028416E1,5.282155871E-1,-1.420738459E0
3.636491390E1,9.914062500E0,3.756731451E-1,-1.588834286E0
3.638437463E1,9.951749802E0,2.141576260E-1,-1.780858278E0
3.640383536E1,1.004447079E1,1.154536903E-1,-1.671386600E0
3.642329598E1,1.002054310E1,6.340979785E-2,-1.461416483E0
3.644275671E1,1.005942631E1,2.333002165E-2,-1.504487276E0
3.646221744E1,1.002413273E1,5.982056726E-3,-1.518245935E0
3.648167806E1,1.003370380E1,-2.392822644E-3,-1.567298889E0
3.650113879E1,9.951749802E0,-8.793623000E-2,-1.510469317E0
3.652059952E1,9.807581902E0,-1.166501045E-1,-1.246660590E0
3.654006015E1,9.694520950E0,-5.982056633E-2,-9.272187948E-1
3.655952088E1,9.610772133E0,5.024927482E-2,-6.406782866E-1
3.657898160E1,9.479166985E0,1.674975902E-1,-4.384847581E-1
3.659844233E1,9.474381447E0,2.069791555E-1,-2.913261652E-1
3.661790296E1,9.473184586E0,2.093719840E-1,-2.213360965E-1
3.663736369E1,9.481559753E0,1.668993831E-1,-1.435693651E-1
3.665682442E1,9.531808853E0,1.495514214E-1,-7.776673883E-2
3.667628504E1,9.594620705E0,1.543370634E-1,-7.776673883E-2
3.669574577E1,9.571290970E0,2.225325108E-1,-1.399801224E-1
3.671520650E1,9.500701904E0,2.476571500E-1,-1.651047617E-1
3.673466723E1,9.512067795E0,2.488535494E-1,-1.585244983E-1
3.675412786E1,9.683155060E0,2.590230405E-1,-7.836493850E-2
3.677358858E1,9.984052658E0,2.865405083E-1,-7.178467698E-3
3.679304931E1,1.027418232E1,2.638086975E-1,-2.931207791E-2
3.681251004E1,1.019043350E1,1.268195957E-1,-2.153540403E-2
3.683197067E1,1.000977516E1,-2.392822690E-2,-2.452643216E-2
3.685143140E1,9.841679573E0,-1.118644550E-1,-1.692921966E-1
3.687089213E1,9.840482712E0,-1.698904037E-1,-2.464607358E-1
3.689035275E1,9.954740524E0,-6.699903309E-2,-3.224328458E-1
3.690981348E1,1.004985523E1,1.357926875E-1,-2.943171859E-1
3.692927421E1,9.952945709E0,3.481557071E-1,-2.548356056E-1
3.694873494E1,9.826126099E0,3.948157430E-1,-2.572284341E-1
3.696819556E1,9.756135941E0,3.134597540E-1,-2.321037948E-1
3.698765629E1,9.788438797E0,1.633101404E-1,-1.531406492E-1
3.700711702E1,9.867402077E0,5.024927482E-2,-6.580262631E-2
3.702657775E1,9.897313118E0,5.742774159E-2,5.383851007E-3
3.704603838E1,9.876974106E0,7.298108935E-2,1.495514158E-2
3.706549910E1,9.818349838E0,7.657032460E-2,8.374879137E-3
3.708495983E1,9.838688850E0,6.699903309E-2,-9.272187948E-2
3.710442046E1,9.875179291E0,6.281159073E-2,-1.932204217E-1
3.712388119E1,9.844072342E0,2.991028316E-2,-2.219343036E-1
3.714334192E1,9.837491989E0,7.776673418E-3,-1.860419661E-1
3.716280265E1,9.792028427E0,-1.256231871E-2,-1.387837082E-1
3.718226327E1,9.720243454E0,-1.495514158E-2,-9.332008660E-2
3.720172400E1,9.727422714E0,-2.392822690E-2,-8.015955985E-2
3.722118473E1,9.635896683E0,-1.064806059E-1,2.931207791E-2
3.724064546E1,9.709476471E0,-2.237289101E-1,3.589234129E-2
3.726010608E1,9.824331284E0,-1.704886109E-1,-3.828516230E-2
3.727956681E1,9.956535339E0,-1.920240223E-1,-6.999006122E-2
3.729902754E1,9.921240807E0,-2.249253243E-1,-2.506481707E-1
3.731848827E1,9.811769485E0,-2.219343036E-1,-3.110669553E-1
3.733794890E1,9.669396400E0,-9.391828626E-2,-4.097708762E-1
3.735740963E1,9.576674461E0,2.141576260E-1,-6.538388133E-1
3.737687036E1,9.573084831E0,5.132604837E-1,-9.888339639E-1
3.739633108E1,9.718449593E0,6.681957245E-1,-1.271785259E0
3.741579171E1,9.830313683E0,7.423732281E-1,-1.484746456E0
3.743525244E1,9.735198975E0,7.232306600E-1,-1.527219057E0
3.745471317E1,9.537791252E0,6.729813814E-1,-1.532602906E0
3.747417390E1,9.382257462E0,6.807580590E-1,-1.435095429E0
3.749363452E1,9.294919968E0,7.501499057E-1,-1.118046403E0
3.751309525E1,9.369096756E0,7.226324677E-1,-6.520441771E-1
3.753255598E1,9.494122505E0,5.874379873E-1,-1.214357466E-1
3.755201661E1,9.815358162E0,3.708875179E-1,-4.785645287E-3
3.757147733E1,1.024427223E1,2.327020019E-1,-1.094716340E-1
3.759093806E1,1.063908768E1,3.044866920E-1,-1.417747438E-1
3.761039879E1,1.089691448E1,5.712863803E-1,-1.752742529E-1
3.762985942E1,1.075932693E1,7.824530005E-1,-2.063809484E-1
3.764932015E1,1.050688457E1,6.568298340E-1,-4.169493318E-1
3.766878088E1,1.012821960E1,3.846462369E-1,-6.616154313E-1
3.768824160E1,9.799206734E0,2.195414752E-1,-6.323033571E-1
3.770770223E1,9.534799576E0,3.050848842E-1,-4.342973232E-1
3.772716296E1,9.381659508E0,5.491527915E-1,-8.973085135E-2
3.774662369E1,9.265607834E0,7.746763229E-1,2.763710022E-1
3.776608431E1,9.210572243E0,9.044869542E-1,4.444667995E-1
3.778554504E1,9.290732384E0,8.075776696E-1,3.744767308E-1
3.780500577E1,9.639486313E0,5.772684813E-1,2.021935135E-1
3.782446650E1,9.989436150E0,4.061816335E-1,1.591227055E-1
3.784392713E1,1.011565781E1,2.811566591E-1,2.877369225E-1
3.786338786E1,1.001156998E1,2.410768867E-1,4.073780477E-1
3.788284858E1,9.890133858E0,4.019941986E-1,5.401797295E-1
3.790230931E1,9.858428955E0,6.927221417E-1,7.244270444E-1
3.792176994E1,9.908080101E0,8.344969153E-1,9.332008362E-1
3.794123067E1,9.884152412E0,8.123632669E-1,1.012762189E0
3.796069140E1,9.801001549E0,6.969096065E-1,9.553344250E-1
3.798015202E1,9.783055305E0,6.837490797E-1,8.781659007E-1
3.799961275E1,9.954142570E0,8.907282352E-1,8.464609981E-1
3.801907348E1,1.013420200E1,1.027119160E0,9.355936646E-1
3.803853421E1,1.019761181E1,1.010369420E0,9.990034699E-1
3.805799483E1,1.027238750E1,1.058824062E0,9.278169870E-1
3.807745556E1,1.032861900E1,1.188036442E0,8.075776696E-1
3.809691629E1,1.055533886E1,1.202393413E0,3.960121572E-1
3.811637702E1,1.080957603E1,1.081555843E0,-1.866401732E-1
3.813583765E1,1.088495064E1,9.541380405E-1,-5.359922647E-1
3.815529838E1,1.091007519E1,8.865407705E-1,-4.809573591E-1
3.817475910E1,1.084068298E1,9.068797827E-1,-1.692921966E-1
3.819421973E1,1.056251717E1,8.368897438E-1,1.651047617E-1
3.821368046E1,1.020479012E1,7.645068169E-1,2.147558331E-1
3.823314119E1,9.769296646E0,6.801598072E-1,-7.657032460E-2
3.825260192E1,9.354142189E0,5.335994363E-1,-5.790630579E-1
3.827206254E1,9.096315384E0,4.019941986E-1,-9.768698215E-1
3.829152327E1,9.131011009E0,4.025924206E-1,-9.900303483E-1
3.831098400E1,9.375677109E0,5.078766346E-1,-7.908278704E-1
3.833044473E1,9.483354568E0,5.527420044E-1,-7.130611539E-1
3.834990536E1,9.484550476E0,4.049852192E-1,-8.183453679E-1
3.836936608E1,9.452247620E0,8.434699476E-2,-1.053440213E0
3.838882681E1,9.491728783E0,-2.925225794E-1,-1.141974568E0
3.840828744E1,9.442676544E0,-5.718846321E-1,-1.333400369E0
3.842774817E1,9.357730865E0,-7.310073376E-1,-1.393819213E0
3.844720890E1,9.357730865E0,-8.805587292E-1,-1.372283816E0
3.846666963E1,9.538389206E0,-8.500502706E-1,-1.456032634E0
3.848613025E1,9.394820213E0,-7.866404653E-1,-1.556531072E0
3.850559098E1,9.262616158E0,-7.962117195E-1,-1.584646821E0
3.852505171E1,9.576674461E0,-7.848458290E-1,-1.544566989E0
3.854451244E1,9.920642853E0,-5.682953596E-1,-1.560120344E0
3.856397306E1,1.018505001E1,-1.651047617E-1,-1.637288928E0
3.858343379E1,1.045005512E1,3.565305769E-1,-1.699502230E0
3.860289452E1,1.055892849E1,7.142575383E-1,-1.794018745E0
3.862235525E1,1.037168980E1,6.329016089E-1,-1.792224169E0
3.864181588E1,1.004985523E1,6.460621208E-2,-1.648056626E0
3.866127661E1,9.820143700E0,-5.916253924E-1,-1.465603828E0
3.868073733E1,9.707681656E0,-1.060020447E0,-1.167697430E0
3.870019796E1,9.591031075E0,-1.286740422E0,-1.006181955E0
3.871965869E1,9.588040352E0,-1.309472203E0,-1.138983607E0
3.873911942E1,9.741181374E0,-1.186840057E0,-1.382453322E0
3.875858015E1,9.934401512E0,-1.019940615E0,-1.552941918E0
3.877804077E1,9.905687332E0,-7.136593461E-1,-1.400997639E0
3.879750150E1,9.932606697E0,-4.510470629E-1,-8.835497499E-1
3.881696223E1,9.809974670E0,-4.576273263E-1,-3.559323549E-1
3.883642296E1,9.652647018E0,-5.246263742E-1,-2.608176768E-1
3.885588358E1,9.447462082E0,-6.107679605E-1,-3.182454109E-1
3.887534431E1,9.292527199E0,-5.282155871E-1,-3.894318938E-1
3.889480504E1,9.602396965E0,-2.877369225E-1,-4.612165689E-1
3.891426577E1,9.753145218E0,-7.477571070E-2,-4.677968323E-1
3.893372640E1,9.906884193E0,-1.914258115E-2,-3.918247223E-1
3.895318713E1,9.967901230E0,2.512463741E-2,-2.709871531E-1
3.897264786E1,9.723833084E0,-7.417750359E-2,-3.343969584E-1
3.899210858E1,8.490332603E0,-1.920240223E-1,-5.527420044E-1
3.901156921E1,7.485347271E0,-3.972085714E-1,-1.014556766E0
3.903102994E1,9.141778946E0,-3.948157430E-1,-1.173679471E0
3.905049067E1,1.176431274E1,-9.990034252E-2,-7.489534616E-1
3.906995140E1,1.346321678E1,-4.187439680E-1,3.930211067E-1
3.908941202E1,1.317189026E1,-1.998006850E-1,1.716850251E-1
3.910887275E1,1.152263737E1,5.054838061E-1,-5.545366406E-1
3.912833348E1,1.116371441E1,6.939185411E-2,-1.101894855E0
3.914779421E1,9.605388641E0,-1.609173268E-1,-9.427721500E-1
3.916725483E1,7.953144073E0,-4.432703853E-1,-4.707878530E-1
3.918671556E1,7.109674454E0,-8.530412912E-1,-1.519442350E-1
3.920617629E1,7.350750923E0,-9.349954724E-1,-2.871387079E-2
3.922563702E1,8.212167740E0,-5.018945336E-1,1.429711580E-1
3.924509775E1,9.727422714E0,5.204389244E-2,1.034895778E-1
3.926455838E1,1.073958588E1,5.970092416E-1,-2.416750938E-1
3.928401911E1,1.087059307E1,7.423732281E-1,-5.419743061E-1
3.930347983E1,1.043330479E1,5.605186820E-1,-7.914260626E-1
3.932294056E1,9.945169449E0,2.943171859E-1,-6.969096065E-1
3.934240119E1,9.513862610E0,2.273181453E-2,-4.133601189E-1
3.936186192E1,9.457631111E0,-1.950150430E-1,-1.160518974E-1
3.938132265E1,9.438488960E0,-2.428714931E-1,-6.101697683E-2
3.940078338E1,9.498908043E0,-1.369891018E-1,-2.578266263E-1
3.942024410E1,9.776474953E0,6.819544733E-2,-5.341976285E-1
3.943970473E1,9.999007225E0,2.721835673E-1,-6.352944374E-1
3.945916546E1,1.005643559E1,3.367897868E-1,-6.735795736E-1
3.947862619E1,9.996614456E0,2.733799815E-1,-5.916253924E-1
3.949808692E1,9.902098656E0,2.506481707E-1,-5.132604837E-1
3.951754754E1,9.915857315E0,2.428714931E-1,-4.097708762E-1
3.953700827E1,9.875777245E0,2.249253243E-1,-3.176472187E-1
3.955646900E1,9.801001549E0,3.547359705E-1,-3.625126183E-1
3.957592973E1,9.804591179E0,5.102694035E-1,-3.810569942E-1
3.959539046E1,9.858428955E0,4.660021961E-1,-3.367897868E-1
3.961485108E1,9.931410789E0,3.619144261E-1,-3.200400174E-1
3.963431181E1,9.999007225E0,1.256231815E-1,-4.121637046E-1
3.965377254E1,1.010668468E1,-2.871387079E-2,-5.766702294E-1
3.967323327E1,1.010309505E1,-1.734796353E-2,-6.281159520E-1
3.969269400E1,9.945767403E0,6.281159073E-2,-5.090730190E-1
3.971215463E1,9.891330719E0,1.393819153E-1,-4.773681164E-1
3.973161536E1,9.902696609E0,2.123630047E-1,-8.500502706E-1
3.975107608E1,9.912267685E0,3.188436031E-1,-1.211964726E0
3.977053681E1,9.893125534E0,3.361915946E-1,-1.025922656E0
3.978999744E1,9.701699257E0,2.051845491E-1,-4.624129832E-1
3.980945817E1,9.409176826E0,-5.144568533E-2,1.088734269E-1
3.982891890E1,9.224330902E0,-2.153540403E-1,5.318048596E-1
3.984837963E1,9.223134995E0,-1.573280841E-1,8.967102766E-1
3.986784036E1,9.511469841E0,1.244267747E-1,7.124629617E-1
3.988730098E1,9.881160736E0,2.859423161E-1,1.124626622E-1
3.990676171E1,1.020120144E1,3.397808075E-1,-6.502495408E-1
3.992622244E1,1.043330479E1,2.440679073E-1,-1.177866936E0
3.994568317E1,1.046201897E1,1.848455518E-1,-1.267597795E0
