"Time (s)","Gyroscope x (rad/s)","Gyroscope y (rad/s)","Gyroscope z (rad/s)"
5.994522100E-2,1.589775532E-1,5.551233515E-2,-8.177952468E-2
7.940584600E-2,1.156061590E-1,1.019380614E-1,-7.811433077E-2
9.886657500E-2,9.453132749E-2,1.052978188E-1,-5.841394514E-2
1.183272000E-1,1.030834317E-1,8.391755074E-2,-3.077231348E-2
1.377878250E-1,1.343902498E-1,6.406444311E-2,-8.781181648E-3
1.572484500E-1,1.632536054E-1,5.765036494E-2,3.436114406E-3
1.767091790E-1,1.718057245E-1,7.108938694E-2,7.864884101E-3
1.961698040E-1,1.631008983E-1,8.269581944E-2,1.091920771E-2
2.156304290E-1,1.553123742E-1,8.284853399E-2,1.672242396E-2
2.350910540E-1,1.537852138E-1,1.115591824E-1,2.619082667E-2
2.545517830E-1,1.574503928E-1,1.333975941E-1,3.642281145E-2
2.740124080E-1,1.577558219E-1,1.165988147E-1,4.253146052E-2
2.934730330E-1,1.530216336E-1,8.697187155E-2,4.512763396E-2
3.129337620E-1,1.420260668E-1,3.627009690E-2,3.764454275E-2
3.323943870E-1,1.153007299E-1,1.091920771E-2,1.534797717E-2
3.518550120E-1,6.490438432E-2,3.581194952E-2,-1.076649129E-2
3.713156370E-1,1.679878100E-3,7.368556410E-2,-4.298960790E-2
3.907763670E-1,-4.825831577E-2,8.987347782E-2,-7.551816106E-2
4.102369920E-1,-8.475748450E-2,9.124792367E-2,-9.827287495E-2
4.296976170E-1,-1.168278903E-1,9.582941234E-2,-1.023962051E-1
4.491582420E-1,-1.391244531E-1,9.323323518E-2,-9.857830405E-2
4.686189710E-1,-1.412624866E-1,9.292780608E-2,-8.697187155E-2
4.880795960E-1,-1.264490038E-1,9.506583214E-2,-6.299543381E-2
5.075402210E-1,-1.072067693E-1,8.727730811E-2,-3.886627033E-2
5.270008460E-1,-9.269873053E-2,6.131555140E-2,-2.084576152E-2
5.464615750E-1,-9.239330143E-2,3.321577236E-2,-5.879573524E-3
5.659222000E-1,-1.052214578E-1,1.458439697E-2,2.825249685E-3
5.853828250E-1,-1.256854236E-1,8.017600514E-3,-4.963276442E-3
6.048434500E-1,-1.409570426E-1,8.475748822E-3,-2.359465137E-2
6.243041790E-1,-1.577558219E-1,1.320995111E-2,-2.863428742E-2
6.437648040E-1,-1.942549944E-1,2.023489587E-2,-1.947131567E-2
6.632254290E-1,-2.302960157E-1,1.351538301E-2,-9.239329956E-3
6.826860540E-1,-2.347247899E-1,7.559451740E-3,3.817904799E-4
7.021467830E-1,-2.116646469E-1,2.061668551E-3,1.168278884E-2
7.216074080E-1,-1.890626550E-1,-1.450803829E-3,1.794415340E-2
7.410680330E-1,-1.924224049E-1,-5.268708803E-3,1.168278884E-2
7.605286580E-1,-2.093739063E-1,-2.519817324E-3,-7.635809743E-5
7.799893870E-1,-2.113592178E-1,9.392046370E-3,-2.214384731E-3
7.994500120E-1,-1.933387071E-1,1.443168055E-2,8.781181648E-3
8.189106370E-1,-1.731801629E-1,1.076649129E-2,2.176205814E-2
8.383712620E-1,-1.540906429E-1,3.741546767E-3,3.367391974E-2
8.578319920E-1,-1.330158114E-1,-5.574141163E-3,3.657552972E-2
8.772926170E-1,-1.117882580E-1,-3.168861195E-2,3.642281145E-2
8.967532420E-1,-9.422589093E-2,-5.459604040E-2,4.024071619E-2
9.162138670E-1,-7.651081681E-2,-8.086322248E-2,4.894553870E-2
9.356745960E-1,-5.207622424E-2,-1.107956022E-1,5.841394514E-2
9.551352210E-1,-2.703076601E-2,-1.402698308E-1,5.535962060E-2
9.745958460E-1,-9.162971983E-4,-1.561523080E-1,5.490147322E-2
9.940564710E-1,1.252272818E-2,-1.530979872E-1,6.757691503E-2
1.013517200E0,2.351829410E-2,-1.514181048E-1,8.177952468E-2
1.032977825E0,5.146535859E-2,-1.718820781E-1,8.239039034E-2
1.052438450E0,1.010981202E-1,-1.923460513E-1,8.437569439E-2
1.071899075E0,1.377500147E-1,-2.025780380E-1,9.857830405E-2
1.091359804E0,1.353065521E-1,-1.969275326E-1,1.118646115E-1
1.110820429E0,1.252272725E-1,-1.909715980E-1,1.193477064E-1
1.130281054E0,1.388190240E-1,-1.975383908E-1,1.178205460E-1
1.149741679E0,1.543960720E-1,-2.193768173E-1,1.106428802E-1
1.169202408E0,1.429423541E-1,-2.450331300E-1,1.051450968E-1
1.188663033E0,1.258381456E-1,-2.632063627E-1,1.007163301E-1
1.208123658E0,1.356119812E-1,-2.755763829E-1,1.080467105E-1
1.227584283E0,1.588248461E-1,-2.848920524E-1,1.182786897E-1
1.247045012E0,1.605047137E-1,-2.900844216E-1,1.103374511E-1
1.266505637E0,1.250745654E-1,-2.688568532E-1,7.994692773E-2
1.285966262E0,7.040216774E-2,-2.421315312E-1,4.894553870E-2
1.305426887E0,3.313941509E-2,-2.204458266E-1,4.008800164E-2
1.324887512E0,7.635809947E-3,-1.792124510E-1,4.497491941E-2
1.344348242E0,-1.985310577E-2,-1.271362305E-1,5.199986324E-2
1.363808867E0,-4.963276163E-2,-5.780307949E-2,5.215258151E-2
1.383269492E0,-7.971785218E-2,1.550069358E-2,4.344775900E-2
1.402730117E0,-1.035415828E-1,5.413788930E-2,2.191477455E-2
1.422190846E0,-1.146898642E-1,6.146826968E-2,1.756236190E-3
1.441651471E0,-1.137735620E-1,5.123628303E-2,-1.656970754E-2
1.461112096E0,-1.235474050E-1,2.527453005E-2,-5.093085021E-2
1.480572721E0,-1.579085439E-1,2.214384731E-3,-9.873101860E-2
1.500033450E0,-2.093739063E-1,-2.557996288E-2,-1.437823027E-1
1.519494075E0,-2.565632164E-1,-4.940368980E-2,-1.639408320E-1
1.538954700E0,-2.580903769E-1,-3.459021822E-2,-1.489746422E-1
1.558415325E0,-2.156352699E-1,1.305723470E-2,-1.190422773E-1
1.577875950E0,-1.701258421E-1,5.352702737E-2,-9.017891437E-2
1.597336679E0,-1.565341055E-1,6.467530876E-2,-6.314814836E-2
1.616797304E0,-1.647807807E-1,5.734493211E-2,-5.841394514E-2
1.636257929E0,-1.711948514E-1,3.214675933E-2,-7.903063297E-2
1.655718554E0,-1.818849891E-1,1.550069358E-2,-1.002581790E-1
1.675179179E0,-2.026543915E-1,1.412624773E-2,-1.117118970E-1
1.694639908E0,-2.318231910E-1,2.710712515E-2,-1.094211563E-1
1.714100533E0,-2.550360560E-1,4.115701467E-2,-8.727730811E-2
1.733561158E0,-2.672533393E-1,5.856665969E-2,-6.009382382E-2
1.753021783E0,-2.620609999E-1,6.666062027E-2,-4.818195850E-2
1.772482408E0,-2.229656428E-1,5.826122686E-2,-5.383246019E-2
1.791943137E0,-1.496618688E-1,4.176788032E-2,-6.345357746E-2
1.811403762E0,-8.628465235E-2,2.130390890E-2,-6.986765563E-2
1.830864387E0,-5.100720748E-2,-2.290742996E-4,-7.215840369E-2
1.850325012E0,-3.848448023E-2,-8.170315996E-3,-6.604975462E-2
1.869785637E0,-4.734202102E-2,3.894262947E-3,-5.551233515E-2
1.889246367E0,-7.040216774E-2,9.239329956E-3,-4.589121789E-2
1.908706992E0,-9.422589093E-2,-7.559451740E-3,-4.237874225E-2
1.928167617E0,-1.183550507E-1,-4.634936526E-2,-4.772381112E-2
1.947628242E0,-1.389717311E-1,-8.177952468E-2,-5.917752534E-2
1.967088867E0,-1.502727419E-1,-9.201150388E-2,-6.299543381E-2
1.986549596E0,-1.580612659E-1,-6.131555140E-2,-5.871937796E-2
2.006010221E0,-1.585194170E-1,-3.092502989E-2,-5.444332212E-2
2.025470846E0,-1.386663020E-1,-2.359465137E-2,-5.306887627E-2
2.044931471E0,-9.636391699E-2,-2.435823344E-2,-4.940368980E-2
2.064392096E0,-4.963276163E-2,-1.603520010E-3,-3.657552972E-2
2.083852825E0,-1.404988952E-2,3.596466407E-2,-2.115119249E-2
2.103313450E0,-7.635809598E-4,6.788235158E-2,-1.183550525E-2
2.122774075E0,-4.276053514E-3,8.483384550E-2,-1.076649129E-2
2.142234700E0,-1.679878123E-2,9.155336022E-2,-1.168278884E-2
2.161695325E0,-2.122755162E-2,1.022434905E-1,-3.588830587E-3
2.181156054E0,-4.581485991E-4,1.326340139E-1,1.794415340E-2
2.200616679E0,3.481929377E-2,1.459203213E-1,3.978256881E-2
2.220077304E0,6.383536756E-2,1.028543562E-1,4.207331315E-2
2.239537929E0,7.315105945E-2,3.627009690E-2,3.199404106E-2
2.258998554E0,7.498364896E-2,-1.305723470E-2,1.687514037E-2
2.278459283E0,8.231402934E-2,-2.130390890E-2,9.086613543E-3
2.297919908E0,8.903354406E-2,-1.748600416E-2,7.864884101E-3
2.317380533E0,9.468404204E-2,-9.850194678E-3,7.712167688E-3
2.336841158E0,1.041524485E-1,9.926552884E-4,7.254019380E-3
2.356301783E0,1.075121984E-1,2.283107117E-2,1.061377581E-2
2.375762408E0,9.880737960E-2,4.008800164E-2,1.397353224E-2
2.395223033E0,8.338304609E-2,3.153589368E-2,1.351538301E-2
2.414683762E0,6.856957078E-2,1.733328775E-2,9.392046370E-3
2.434144387E0,6.414080411E-2,6.643154658E-3,4.352411721E-3
2.453605012E0,6.123919412E-2,-7.635809743E-5,-5.345066893E-4
2.473065637E0,5.009091273E-2,-8.399390499E-4,-3.283398226E-3
2.492526262E0,4.657844082E-2,3.016144782E-2,-1.603520010E-3
2.511986992E0,5.711585656E-2,5.703949928E-2,-1.145371469E-3
2.531447617E0,6.750056148E-2,5.719221383E-2,-3.130682046E-3
2.550908242E0,6.933315098E-2,4.925097153E-2,-3.588830587E-3
2.570368867E0,6.582067907E-2,5.199986324E-2,9.926552884E-4
2.589829492E0,6.627883017E-2,5.703949928E-2,6.032289471E-3
2.609290117E0,7.086031139E-2,4.833467677E-2,7.559451740E-3
2.628750846E0,7.177661359E-2,3.000873141E-2,6.337722298E-3
2.648211471E0,7.483093441E-2,2.619082667E-2,3.741546767E-3
2.667672096E0,8.277218044E-2,3.764454275E-2,8.399390499E-4
2.687132721E0,8.261945844E-2,5.245801434E-2,5.345066893E-4
2.706593346E0,7.192932814E-2,5.826122686E-2,-1.756236190E-3
2.726053971E0,6.475166976E-2,6.238456443E-2,-3.130682046E-3
2.745514700E0,5.314523727E-2,7.551816106E-2,6.872228696E-4
2.764975325E0,3.008509055E-2,8.086322248E-2,2.519817324E-3
2.784435950E0,1.023198478E-2,7.475458086E-2,-6.872228696E-4
2.803896575E0,7.635809947E-3,7.322741300E-2,-9.926552884E-4
2.823357200E0,1.511890348E-2,7.002037764E-2,6.872228696E-4
2.842817825E0,2.290742844E-2,6.039925665E-2,3.283398226E-3
2.862278450E0,3.390299529E-2,4.696023092E-2,4.963276442E-3
2.881739179E0,4.581485689E-2,3.993528336E-2,8.017600514E-3
2.901199804E0,5.314523727E-2,4.207331315E-2,7.864884101E-3
2.920660429E0,5.833758786E-2,4.970912263E-2,4.810560029E-3
2.940121054E0,6.566796452E-2,4.650207981E-2,3.894262947E-3
2.959581679E0,7.422006875E-2,4.421133921E-2,7.712167688E-3
2.979042304E0,8.491020650E-2,4.146244749E-2,1.259908639E-2
2.998503033E0,9.483675659E-2,2.893971838E-2,1.366809942E-2
3.017963658E0,9.147699922E-2,3.581194952E-2,1.611155830E-2
3.037424283E0,8.032871783E-2,5.016727000E-2,1.870773360E-2
3.056884908E0,7.589995116E-2,4.741837829E-2,2.084576152E-2
3.076345533E0,8.063415438E-2,3.168861195E-2,2.084576152E-2
3.095806158E0,8.521563560E-2,1.718057133E-2,2.176205814E-2
3.115266783E0,7.467821985E-2,1.290451828E-2,2.374736778E-2
3.134727512E0,6.566796452E-2,3.436114406E-3,2.130390890E-2
3.154188137E0,7.406735420E-2,-1.061377581E-2,1.794415340E-2
3.173648762E0,7.589995116E-2,-3.107774630E-2,1.183550525E-2
3.193109387E0,6.688969582E-2,-3.352120519E-2,1.107192412E-2
3.212570012E0,6.291907281E-2,-2.802342176E-2,1.595884189E-2
3.232030637E0,6.200277433E-2,-5.016727000E-2,1.443168055E-2
3.251491262E0,4.428769648E-2,-8.590286225E-2,1.290451828E-2
3.270951992E0,2.244928107E-2,-1.210275814E-1,8.933897130E-3
3.290412617E0,4.123337101E-3,-1.598175019E-1,1.450803829E-3
3.309873242E0,5.955931731E-3,-1.639408320E-1,-1.229365356E-2
3.329333867E0,1.572976820E-2,-1.553887278E-1,-2.649625950E-2
3.348794492E0,1.130099874E-2,-1.483637840E-1,-3.718639165E-2
3.368255117E0,-9.315688163E-3,-1.355356276E-1,-4.314232618E-2
3.387715846E0,-2.550360374E-2,-9.827287495E-2,-4.360047355E-2
3.407176471E0,-2.519817278E-2,-6.085740402E-2,-4.024071619E-2
3.426637096E0,-1.863137633E-2,-3.856083751E-2,-3.382663801E-2
3.446097721E0,-2.031125315E-2,-2.359465137E-2,-2.970330045E-2
3.465558346E0,-2.474002354E-2,-1.550069358E-2,-2.435823344E-2
3.485018971E0,-2.626718581E-2,-1.107192412E-2,-1.779143699E-2
3.504479596E0,-2.626718581E-2,-6.337722298E-3,-1.198822167E-2
3.523940325E0,-2.443459071E-2,8.323032409E-3,-7.254019380E-3
3.543400950E0,-2.657261863E-2,2.542724647E-2,-7.635809743E-5
3.562861575E0,-3.756818548E-2,4.283689335E-2,7.406735327E-3
3.582322200E0,-4.795288667E-2,5.719221383E-2,6.795870606E-3
3.601782825E0,-5.268708616E-2,6.757691503E-2,4.046979360E-3
3.621243450E0,-5.406153202E-2,7.673988491E-2,3.283398226E-3
3.640704075E0,-5.268708616E-2,9.246965498E-2,4.352411721E-3
3.660164804E0,-5.207622424E-2,1.045342386E-1,5.421424750E-3
3.679625429E0,-4.688387364E-2,1.074358448E-1,2.214384731E-3
3.699086054E0,-4.031707719E-2,1.051450968E-1,2.290742996E-4
3.718546679E0,-3.604102135E-2,1.020907760E-1,2.672533505E-3
3.738007304E0,-3.191768378E-2,1.088102907E-1,9.697478265E-3
3.757467929E0,-2.107483521E-2,9.888373315E-2,1.000291109E-2
3.776928554E0,-4.123337101E-3,7.185296714E-2,9.850194678E-3
3.796389283E0,6.872228812E-3,6.971494108E-2,1.656970754E-2
3.815849908E0,7.024944760E-3,7.887791097E-2,1.733328775E-2
3.835310533E0,-3.054323839E-3,8.544471115E-2,1.122464053E-2
3.854771158E0,-1.374445762E-2,9.216422588E-2,6.032289471E-3
3.874231783E0,-1.466075517E-2,8.498656005E-2,6.490438245E-3
3.893692408E0,-1.038470119E-2,6.192641705E-2,1.061377581E-2
3.913153137E0,-7.941242307E-3,3.642281145E-2,8.475748822E-3
3.932613762E0,-7.330377586E-3,2.160934173E-2,1.756236190E-3
3.952074387E0,-1.267544460E-2,1.977674663E-2,-2.214384731E-3
3.971535012E0,-2.138026804E-2,2.069304511E-2,-4.810560029E-3
3.990995637E0,-1.771507785E-2,1.886045001E-2,-7.101302966E-3
4.010456262E0,-3.970621154E-3,1.290451828E-2,-7.864884101E-3
4.029916992E0,6.566796452E-3,1.351538301E-2,-6.643154658E-3
4.049377617E0,8.093958721E-3,1.779143699E-2,-8.170315996E-3
4.068838242E0,1.267544460E-2,1.687514037E-2,-7.712167688E-3
4.088298867E0,2.306014486E-2,8.323032409E-3,-3.436114406E-3
4.107759492E0,3.008509055E-2,-2.061668551E-3,-1.145371469E-3
4.127220117E0,3.451386094E-2,-1.718057133E-2,-2.825249685E-3
4.146680742E0,4.138609022E-2,-1.687514037E-2,-2.519817324E-3
4.166141367E0,4.550942779E-2,5.345066893E-4,-2.290742996E-4
4.185602096E0,4.673115537E-2,1.565340906E-2,4.810560029E-3
4.205062721E0,4.062250629E-2,2.008217946E-2,1.298087649E-3
4.224523346E0,3.039052337E-2,8.323032409E-3,-4.657844082E-3
4.243983971E0,2.336557768E-2,-5.574141163E-3,-7.101302966E-3
4.263444596E0,2.306014486E-2,-2.283107117E-2,-2.672533505E-3
4.282905221E0,3.115410358E-2,-3.535379842E-2,2.672533505E-3
4.302365950E0,3.848448023E-2,-3.535379842E-2,7.406735327E-3
4.321826575E0,3.726275265E-2,-3.016144782E-2,5.879573524E-3
4.341287200E0,2.657261863E-2,-2.710712515E-2,2.519817324E-3
4.360747825E0,9.315688163E-3,-2.710712515E-2,-1.145371469E-3
4.380208450E0,6.108647794E-4,-2.313650399E-2,-1.908952487E-3
4.399669075E0,5.345067009E-3,-2.405280061E-2,-2.367100911E-3
4.419129700E0,1.404988952E-2,-3.168861195E-2,-7.635809743E-5
4.438590325E0,2.229656465E-2,-4.130972922E-2,1.603520010E-3
4.458051054E0,2.748891525E-2,-5.199986324E-2,3.894262947E-3
4.477511679E0,2.733619884E-2,-6.971494108E-2,3.894262947E-3
4.496972304E0,1.939495653E-2,-8.177952468E-2,1.603520010E-3
4.516432929E0,7.635809947E-3,-8.559742570E-2,2.367100911E-3
4.535893554E0,-2.138026757E-3,-8.025235683E-2,4.199695308E-3
4.555354179E0,-3.359756200E-3,-7.276926935E-2,4.505127668E-3
4.574814804E0,3.359756200E-3,-6.986765563E-2,4.352411721E-3
4.594275533E0,6.719512399E-3,-6.345357746E-2,7.101302966E-3
4.613736158E0,4.734201822E-3,-5.871937796E-2,7.406735327E-3
4.633196783E0,1.374445739E-3,-5.383246019E-2,4.505127668E-3
4.652657408E0,4.581485991E-4,-6.055197120E-2,5.115992390E-3
4.672118033E0,-6.108647794E-4,-7.414371520E-2,4.199695308E-3
4.691578658E0,-1.374445739E-3,-8.284853399E-2,1.603520010E-3
4.711039283E0,-1.374445739E-3,-6.971494108E-2,-3.817904799E-4
4.730499908E0,4.581485991E-4,-5.444332212E-2,-1.603520010E-3
4.749960637E0,2.290742937E-3,-4.085158184E-2,-3.817904799E-4
4.769421262E0,2.748891478E-3,-2.695440874E-2,-7.635809743E-5
4.788881887E0,4.276053514E-3,-2.054032870E-2,-1.450803829E-3
4.808342512E0,1.527161949E-4,-2.054032870E-2,-3.283398226E-3
4.827803137E0,-7.941242307E-3,-2.313650399E-2,-3.436114406E-3
4.847263762E0,-1.282816008E-2,-2.084576152E-2,-1.145371469E-3
4.866724387E0,-9.468403645E-3,-1.733328775E-2,-3.283398226E-3
4.886185012E0,-1.374445739E-3,-1.320995111E-2,-4.963276442E-3
4.905645742E0,6.414080039E-3,-9.850194678E-3,-3.436114406E-3
4.925106367E0,8.857538924E-3,-1.305723470E-2,-1.450803829E-3
4.944566992E0,1.053741761E-2,-2.145662531E-2,-2.061668551E-3
4.964027617E0,1.282816008E-2,-2.328922041E-2,-4.657844082E-3
4.983488242E0,1.649334840E-2,-1.183550525E-2,-6.032289471E-3
5.002948867E0,2.092211880E-2,7.559451740E-3,-2.214384731E-3
5.022409492E0,2.718348242E-2,2.725984156E-2,2.290742996E-4
5.041870117E0,3.130681813E-2,3.214675933E-2,-5.115992390E-3
5.061330846E0,2.947422490E-2,3.550651670E-2,-1.397353224E-2
5.080791471E0,1.832594350E-2,4.375318810E-2,-2.222020552E-2
5.100252096E0,1.679878100E-3,5.535962060E-2,-2.680169232E-2
5.119712721E0,1.084284950E-2,3.306305781E-2,-2.848157100E-2
5.139173346E0,3.466657549E-2,-1.962403022E-2,-2.787070535E-2
5.158633971E0,3.451386094E-2,-6.589704007E-2,-2.756527252E-2
5.178094596E0,3.054323839E-3,-9.017891437E-2,-2.344193682E-2
5.197555221E0,-3.466657549E-2,-8.330668509E-2,-1.702785492E-2
5.217015846E0,-4.062250629E-2,-5.795579776E-2,-4.657844082E-3
5.236476575E0,-1.954767294E-2,-3.413207084E-2,8.781181648E-3
5.255937200E0,4.123337101E-3,-1.244636998E-2,2.054032870E-2
5.275397825E0,1.634063199E-2,1.336266659E-2,2.680169232E-2
5.294858450E0,1.939495653E-2,3.749182448E-2,2.695440874E-2
5.314319075E0,2.046396956E-2,5.138900131E-2,2.802342176E-2
5.333779700E0,2.138026804E-2,5.673406646E-2,3.275762498E-2
5.353240325E0,1.771507785E-2,6.177370250E-2,3.779725730E-2
5.372700950E0,1.786779426E-2,6.879864633E-2,3.993528336E-2
5.392161575E0,2.977965772E-2,6.345357746E-2,4.222602770E-2
5.411622304E0,4.886918142E-2,4.344775900E-2,4.314232618E-2
5.431082929E0,5.925388262E-2,2.680169232E-2,4.176788032E-2
5.450543554E0,6.246092543E-2,3.489565104E-2,4.024071619E-2
5.470004179E0,6.337722391E-2,5.077813566E-2,4.024071619E-2
5.489464804E0,6.673697382E-2,5.016727000E-2,3.703367710E-2
5.508925429E0,6.795870513E-2,5.245801434E-2,3.535379842E-2
5.528386054E0,6.719512492E-2,6.528617442E-2,3.657552972E-2
5.547846679E0,6.979130208E-2,7.017309219E-2,3.275762498E-2
5.567307304E0,7.101303339E-2,5.612320080E-2,2.863428742E-2
5.586767929E0,7.086031139E-2,3.535379842E-2,1.748600416E-2
5.606228658E0,6.139190868E-2,3.428478539E-2,3.588830587E-3
5.625689283E0,4.825831577E-2,5.184714869E-2,2.214384731E-3
5.645149908E0,4.535670951E-2,5.902481079E-2,5.879573524E-3
5.664610533E0,5.803215504E-2,4.726566374E-2,5.726857111E-3
5.684071158E0,8.048143238E-2,2.878700197E-2,2.367100911E-3
5.703531783E0,9.514218569E-2,2.054032870E-2,-1.756236190E-3
5.722992408E0,9.819651395E-2,2.557996288E-2,-8.399390499E-4
5.742453033E0,8.521563560E-2,2.848157100E-2,-2.977965865E-3
5.761913658E0,6.185005978E-2,1.779143699E-2,-6.795870606E-3
5.781374387E0,5.589412898E-2,1.580612548E-2,-7.101302966E-3
5.800835012E0,7.788526267E-2,2.214384731E-3,-2.061668551E-3
5.820295637E0,1.000291109E-1,-1.488982886E-2,4.199695308E-3
5.839756262E0,1.059850380E-1,-2.664897591E-2,6.948587019E-3
5.859216887E0,9.147699922E-2,-1.305723470E-2,-7.635809743E-5
5.878677512E0,7.819069177E-2,1.214093715E-2,-2.367100911E-3
5.898138137E0,7.162389904E-2,8.170315996E-3,7.635809743E-5
5.917598762E0,6.307178736E-2,-9.239329956E-3,-9.926552884E-4
5.937059387E0,6.032289565E-2,-3.061959706E-2,-1.000291109E-2
5.956520012E0,6.948586553E-2,-5.230529606E-2,-2.466366626E-2
5.975980742E0,6.108647957E-2,-7.108938694E-2,-3.061959706E-2
5.995441367E0,3.985892609E-2,-8.529199660E-2,-2.298378758E-2
6.014901992E0,2.076940238E-2,-6.589704007E-2,-1.595884189E-2
6.034362617E0,-1.069013379E-3,-3.917170316E-2,-7.559451740E-3
6.053823242E0,-2.306014486E-2,-5.444332212E-2,-9.239329956E-3
6.073283867E0,-5.742128938E-2,-6.360629201E-2,-1.977674663E-2
6.092744492E0,-1.003345400E-1,-5.856665969E-2,-3.092502989E-2
6.112205117E0,-1.330158114E-1,-7.063124329E-2,-3.825540841E-2
6.131665742E0,-1.362228394E-1,-8.407026529E-2,-4.390590638E-2
6.151126367E0,-1.253799945E-1,-6.757691503E-2,-4.787652567E-2
6.170586992E0,-1.276707351E-1,-5.047270283E-2,-4.619665071E-2
6.190047721E0,-1.531743407E-1,-1.061377581E-2,-4.375318810E-2
6.209508346E0,-1.982256174E-1,3.229947388E-2,-3.596466407E-2
6.228968971E0,-2.406807244E-1,7.093667239E-2,-3.321577236E-2
6.248429596E0,-2.649625838E-1,9.201150388E-2,-3.627009690E-2
6.267890221E0,-2.774853408E-1,7.429642975E-2,-4.619665071E-2
6.287350846E0,-3.011563420E-1,5.734493211E-2,-5.765036494E-2
6.306811471E0,-3.274235129E-1,2.649625950E-2,-5.887209252E-2
6.326272096E0,-3.387245238E-1,6.795870606E-3,-5.245801434E-2
6.345732721E0,-3.324631453E-1,3.168861195E-2,-3.657552972E-2
6.365193346E0,-3.281871080E-1,5.856665969E-2,-2.054032870E-2
6.384653971E0,-3.355174661E-1,7.612902671E-2,-7.101302966E-3
6.404114700E0,-3.349066079E-1,5.917752534E-2,2.519817324E-3
6.423575325E0,-3.035998046E-1,2.328922041E-2,6.032289471E-3
6.443035950E0,-2.703076601E-1,-3.741546767E-3,1.351538301E-2
6.462496575E0,-2.328922004E-1,-1.015562657E-2,2.054032870E-2
6.481957200E0,-1.907425225E-1,-3.741546767E-3,2.542724647E-2
6.501417825E0,-1.547015011E-1,1.450803829E-3,3.321577236E-2
6.520878450E0,-1.127045527E-1,-2.061668551E-3,3.397935256E-2
6.540339075E0,-5.467239767E-2,-1.244636998E-2,3.260490671E-2
6.559799700E0,-3.970621154E-3,-6.795870606E-3,3.459021822E-2
6.579260325E0,2.733619884E-2,8.323032409E-3,3.901898861E-2
6.598720950E0,4.230238497E-2,3.397935256E-2,4.253146052E-2
6.618181679E0,4.016435891E-2,5.505418777E-2,3.932442144E-2
6.637642304E0,3.894263133E-2,4.650207981E-2,2.741255611E-2
6.657102929E0,5.360338464E-2,1.351538301E-2,1.153007243E-2
6.676563554E0,6.017018110E-2,-2.008217946E-2,-4.199695308E-3
6.696024179E0,4.230238497E-2,-3.443750367E-2,-2.985601686E-2
6.715484804E0,9.468403645E-3,-3.016144782E-2,-6.116283685E-2
6.734945429E0,-1.313359290E-2,-8.017600514E-3,-8.743002266E-2
6.754406054E0,-1.740964688E-2,2.519817324E-3,-1.014799103E-1
6.773866679E0,-1.710421406E-2,-1.397353224E-2,-1.106428802E-1
6.793327304E0,-9.468403645E-3,-4.146244749E-2,-1.213330179E-1
6.812788033E0,1.282816008E-2,-8.055779338E-2,-1.243873388E-1
6.832248658E0,2.687804960E-2,-1.175151095E-1,-1.211803034E-1
6.851709283E0,1.557705179E-2,-1.222493127E-1,-1.149189398E-1
6.871169908E0,-9.162971750E-3,-1.025489271E-1,-1.085048541E-1
6.890630533E0,-3.375028074E-2,-1.056032479E-1,-9.995274991E-2
6.910091158E0,-6.383536756E-2,-1.640935540E-1,-9.033162892E-2
6.929551783E0,-7.941242307E-2,-2.163224965E-1,-7.948877662E-2
6.949012408E0,-6.643154472E-2,-2.091448307E-1,-6.070468575E-2
6.968473033E0,-6.078104675E-2,-1.532506943E-1,-3.657552972E-2
6.987933658E0,-6.062832847E-2,-8.636100590E-2,-2.176205814E-2
7.007394283E0,-4.459312931E-2,-5.123628303E-2,-1.214093715E-2
7.026855012E0,-4.276053514E-3,-5.276344717E-2,3.817904799E-4
7.046315637E0,3.695731983E-2,-6.803506613E-2,1.198822167E-2
7.065776262E0,5.772672221E-2,-9.094249457E-2,1.351538301E-2
7.085236887E0,4.474584386E-2,-1.146135032E-1,4.810560029E-3
7.104697512E0,5.345067009E-3,-1.123227626E-1,-8.628465235E-3
7.124158137E0,-3.512472659E-2,-7.108938694E-2,-2.390008420E-2
7.143618762E0,-6.246092543E-2,-6.948587019E-3,-2.985601686E-2
7.163079387E0,-7.391463965E-2,5.612320080E-2,-2.710712515E-2
7.182540012E0,-6.139190868E-2,6.864593178E-2,-2.344193682E-2
7.202000637E0,-1.908952370E-2,1.153007243E-2,-1.916588284E-2
7.221461262E0,3.283398226E-2,-6.345357746E-2,-1.809686981E-2
7.240921992E0,6.291907281E-2,-9.689842910E-2,-1.962403022E-2
7.260382617E0,5.818486959E-2,-6.452259421E-2,-1.626427472E-2
7.279843242E0,2.733619884E-2,6.872228696E-4,-6.795870606E-3
7.299303867E0,-1.053741761E-2,4.573849961E-2,6.948587019E-3
7.318764492E0,-4.398226365E-2,4.680751264E-2,2.038761228E-2
7.338225117E0,-6.551524997E-2,2.252563834E-2,2.359465137E-2
7.357685742E0,-7.483093441E-2,2.519817324E-3,1.626427472E-2
7.377146367E0,-6.826414168E-2,-5.726857111E-3,1.427896414E-2
7.396606992E0,-5.513054505E-2,4.963276442E-3,2.741255611E-2
7.416067617E0,-4.184423760E-2,3.581194952E-2,4.482220486E-2
7.435528242E0,-3.161225095E-2,4.192059487E-2,5.581776798E-2
7.454988867E0,-2.046396956E-2,1.595884189E-2,6.330086291E-2
7.474449492E0,-1.175914705E-2,5.879573524E-3,6.666062027E-2
7.493910221E0,8.093958721E-3,2.848157100E-2,6.223184988E-2
7.513370846E0,4.566214234E-2,4.146244749E-2,5.841394514E-2
7.532831471E0,8.414662629E-2,2.481638081E-2,5.795579776E-2
7.552292096E0,1.098029464E-1,3.283398226E-3,6.055197120E-2
7.571752721E0,1.285870373E-1,-4.657844082E-3,5.826122686E-2
7.591213346E0,1.339320987E-1,-9.926552884E-4,5.306887627E-2
7.610673971E0,1.212566569E-1,3.741546767E-3,4.253146052E-2
7.630134596E0,8.139773458E-2,1.397353224E-2,3.596466407E-2
7.649595221E0,2.809977904E-2,2.664897591E-2,3.321577236E-2
7.669055846E0,-1.832594397E-3,4.894553870E-2,3.642281145E-2
7.688516471E0,1.053741761E-2,5.413788930E-2,4.741837829E-2
7.707977096E0,4.352411628E-2,6.559160352E-2,5.994110554E-2
7.727437721E0,6.444623321E-2,7.002037764E-2,6.330086291E-2
7.746898346E0,6.429351866E-2,5.062541738E-2,6.024653837E-2
7.766358971E0,5.681042373E-2,3.397935256E-2,6.253728271E-2
7.785819700E0,5.543597788E-2,2.359465137E-2,6.589704007E-2
7.805280325E0,4.795288667E-2,-3.588830587E-3,5.658135191E-2
7.824740950E0,1.450803876E-2,-4.665479809E-2,3.504836559E-2
7.844201575E0,-1.786779426E-2,-8.330668509E-2,2.359465137E-2
7.863662200E0,-3.084867075E-2,-1.011744812E-1,1.992946304E-2
7.883122825E0,-3.711003438E-2,-8.636100590E-2,1.672242396E-2
7.902583450E0,-4.398226365E-2,-4.711294547E-2,6.795870606E-3
7.922044075E0,-5.177079141E-2,-9.239329956E-3,-1.275180187E-2
7.941504700E0,-6.383536756E-2,2.451094985E-2,-4.054614902E-2
7.960965325E0,-7.696896046E-2,4.757109284E-2,-5.215258151E-2
7.980425950E0,-8.536835015E-2,5.199986324E-2,-3.962985426E-2
7.999886575E0,-8.338304609E-2,4.634936526E-2,-2.496909723E-2
8.019347200E0,-6.185005978E-2,3.657552972E-2,-1.733328775E-2
8.038807929E0,-2.000582218E-2,3.245219216E-2,-1.198822167E-2
8.058268554E0,2.443459071E-2,3.397935256E-2,-7.635809743E-5
8.077729179E0,5.192350596E-2,3.092502989E-2,1.672242396E-2
8.097189804E0,6.062832847E-2,4.046979360E-3,3.611737862E-2
8.116650429E0,7.925970852E-2,-4.955640435E-2,5.871937796E-2
8.136111054E0,1.285870373E-1,-9.995274991E-2,9.231694043E-2
8.155571679E0,1.945604384E-1,-1.187368408E-1,1.323285848E-1
8.175032304E0,2.600756884E-1,-1.326340139E-1,1.750891209E-1
8.194492929E0,3.263545036E-1,-1.776852906E-1,2.082285285E-1
8.213953554E0,4.054614902E-1,-2.561814189E-1,2.112828493E-1
8.233414179E0,4.809032977E-1,-3.340666890E-1,1.879172772E-1
8.252874804E0,5.261073112E-1,-3.641517758E-1,1.602756530E-1
8.272335429E0,5.238165259E-1,-3.650680780E-1,1.437823027E-1
8.291796054E0,4.786125422E-1,-3.577376902E-1,1.315650046E-1
8.311256679E0,3.988946974E-1,-3.589594066E-1,1.081994250E-1
8.330717304E0,2.880227566E-1,-3.203222156E-1,7.017309219E-2
8.350177929E0,1.753181964E-1,-2.067013681E-1,4.329504073E-2
8.369638658E0,7.513637096E-2,-7.521272451E-2,3.291033953E-2
8.389099283E0,1.802051067E-2,2.313650399E-2,3.275762498E-2
8.408559908E0,9.468403645E-3,6.925679743E-2,3.489565104E-2
8.428020533E0,3.436114267E-2,5.444332212E-2,2.405280061E-2
8.447481158E0,8.200860023E-2,5.276344717E-2,-2.214384731E-3
8.466941783E0,1.218675226E-1,1.246927753E-1,-4.222602770E-2
8.486402408E0,1.446222365E-1,1.808923334E-1,-7.704532146E-2
8.505863033E0,1.456912458E-1,1.677587330E-1,-8.025235683E-2
8.525323658E0,1.517999023E-1,9.476039559E-2,-5.856665969E-2
8.544784283E0,1.860083193E-1,3.352120519E-2,-4.237874225E-2
8.564244908E0,2.240346521E-1,4.894553870E-2,-4.741837829E-2
8.583705533E0,2.307541668E-1,9.812015295E-2,-7.231111825E-2
8.603166158E0,1.933387071E-1,1.456148922E-1,-8.972076327E-2
8.622626783E0,1.339320987E-1,2.109774202E-1,-7.918334752E-2
8.642087408E0,8.170316368E-2,2.622900605E-1,-5.642863363E-2
8.661548137E0,4.214967042E-2,2.593884468E-1,-4.741837829E-2
8.681008762E0,1.511890348E-2,2.164752036E-1,-6.467530876E-2
8.700469387E0,-5.192350596E-3,1.553887278E-1,-1.030070707E-1
8.719930012E0,-2.779434808E-2,6.956222653E-2,-1.440877318E-1
8.739390637E0,-5.955931544E-2,2.977965865E-3,-1.665370166E-1
8.758851262E0,-1.102610901E-1,-1.107192412E-2,-1.669951528E-1
8.778311887E0,-1.858556122E-1,-3.642281145E-2,-1.564577371E-1
8.797772512E0,-2.770271897E-1,-1.257617921E-1,-1.666897237E-1
8.817233137E0,-3.588830531E-1,-2.378554791E-1,-1.938732117E-1
8.836693762E0,-4.231765866E-1,-3.220020831E-1,-2.128100246E-1
8.856154387E0,-4.696022868E-1,-3.792706728E-1,-2.167806327E-1
8.875615012E0,-5.126682520E-1,-3.870591819E-1,-2.096029818E-1
8.895075637E0,-5.416843295E-1,-3.560578227E-1,-1.998291463E-1
8.914536262E0,-5.480984449E-1,-3.372737169E-1,-1.889862865E-1
8.933996887E0,-5.355756879E-1,-3.684278131E-1,-1.799760312E-1
8.953457512E0,-5.035052896E-1,-4.285979867E-1,-1.735619605E-1
8.972918137E0,-4.784598351E-1,-4.426479042E-1,-1.636354029E-1
8.992378762E0,-4.877755344E-1,-4.006509483E-1,-1.462257504E-1
9.011839492E0,-5.119046569E-1,-3.446041048E-1,-1.462257504E-1
9.031300117E0,-4.969384968E-1,-2.939023077E-1,-1.598175019E-1
9.050760742E0,-4.280634820E-1,-2.410625070E-1,-1.540142894E-1
9.070221367E0,-3.167333901E-1,-1.581376195E-1,-1.078939885E-1
9.089681992E0,-2.122755051E-1,-5.184714869E-2,-4.207331315E-2
9.109142617E0,-1.464548260E-1,4.344775900E-2,-1.275180187E-2
9.128603242E0,-1.021671370E-1,1.060613990E-1,-1.351538301E-2
9.148063867E0,-7.360920310E-2,1.098793000E-1,-1.756236190E-3
9.167524492E0,-6.551524997E-2,7.460185885E-2,2.374736778E-2
9.186985117E0,-6.459894776E-2,4.879282415E-2,5.047270283E-2
9.206445742E0,-6.536252797E-2,4.298960790E-2,8.147408813E-2
9.225906367E0,-9.254601598E-2,5.810851231E-2,1.208748668E-1
9.245366992E0,-1.455385387E-1,7.918334752E-2,1.575267613E-1
9.264827617E0,-2.000582218E-1,7.200568914E-2,1.802814752E-1
9.284288242E0,-2.368628234E-1,3.535379842E-2,1.996764243E-1
9.303748867E0,-2.374736816E-1,-3.733910993E-2,2.251800299E-1
9.323209492E0,-2.150243968E-1,-6.620246917E-2,2.354120165E-1
9.342670117E0,-2.246455252E-1,6.711876392E-2,2.297615111E-1
9.362130846E0,-2.495382577E-1,2.810741663E-1,2.041051984E-1
9.381591471E0,-2.026543915E-1,4.191296101E-1,1.427132785E-1
9.401052096E0,-6.139190868E-2,4.321104586E-1,9.995274991E-2
9.420512721E0,8.109229803E-2,3.754527569E-1,1.008690447E-1
9.439973346E0,1.287397593E-1,3.105483949E-1,1.161406636E-1
9.459433971E0,9.162971377E-2,2.589302957E-1,1.141553521E-1
9.478894596E0,3.436114267E-2,2.209039778E-1,9.552398324E-2
9.498355221E0,1.481347065E-2,1.938732117E-1,7.231111825E-2
9.517815846E0,4.321868345E-2,1.724929363E-1,5.215258151E-2
9.537276471E0,8.491020650E-2,1.549305767E-1,4.298960790E-2
9.556737096E0,1.149952933E-1,1.446985900E-1,4.528035223E-2
9.576197721E0,1.188132018E-1,1.445458829E-1,6.162098423E-2
9.595658346E0,1.026252806E-1,1.601229310E-1,7.673988491E-2
9.615118971E0,7.635809481E-2,1.732565165E-1,7.765618712E-2
9.634579596E0,4.886918142E-2,1.604283601E-1,6.940951198E-2
9.654040221E0,1.893680729E-2,1.439350098E-1,5.749764666E-2
9.673500846E0,1.527161949E-4,1.395062506E-1,4.787652567E-2
9.692961471E0,7.483093534E-3,1.501963735E-1,4.802924395E-2
9.712422096E0,3.619373962E-2,1.706603467E-1,5.413788930E-2
9.731882825E0,6.582067907E-2,1.700494885E-1,6.284271181E-2
9.751343450E0,8.200860023E-2,1.462257504E-1,6.742420048E-2
9.770804075E0,8.735366166E-2,1.193477064E-1,6.314814836E-2
9.790264700E0,8.781181276E-2,9.644027799E-2,5.658135191E-2
9.809725325E0,8.063415438E-2,6.375901401E-2,4.848739132E-2
9.829185950E0,6.948586553E-2,3.229947388E-2,3.352120519E-2
9.848646575E0,7.070759684E-2,1.351538301E-2,1.809686981E-2
9.868107200E0,7.925970852E-2,-5.345066893E-4,1.809686981E-2
9.887567825E0,8.506292105E-2,-4.199695308E-3,2.557996288E-2
9.907028450E0,8.933897316E-2,-4.963276442E-3,2.832885459E-2
9.926489075E0,9.636391699E-2,-9.926552884E-4,2.909243479E-2
9.945949700E0,9.850194305E-2,5.268708803E-3,2.206749097E-2
9.965410325E0,8.796452731E-2,4.505127668E-3,4.810560029E-3
9.984870950E0,7.238747925E-2,-6.643154658E-3,-4.657844082E-3
1.000433158E1,5.910116807E-2,-1.458439697E-2,-3.283398226E-3
1.002379220E1,5.421425030E-2,-8.170315996E-3,-9.926552884E-4
1.004325283E1,6.673697382E-2,1.145371469E-3,-5.421424750E-3
1.006271345E1,8.338304609E-2,-2.061668551E-3,-1.214093715E-2
1.008217408E1,8.261945844E-2,-4.657844082E-3,-1.672242396E-2
1.010163470E1,6.139190868E-2,1.244636998E-2,-1.916588284E-2
1.012109532E1,3.619373962E-2,3.978256881E-2,-1.779143699E-2
1.014055605E1,1.756236330E-2,5.505418777E-2,-1.962403022E-2
1.016001668E1,1.343902480E-2,5.108356848E-2,-1.886045001E-2
1.017947730E1,2.000582218E-2,4.024071619E-2,-1.565340906E-2
1.019893793E1,2.321286127E-2,2.878700197E-2,-1.427896414E-2
1.021839855E1,1.832594350E-2,2.115119249E-2,-1.198822167E-2
1.023785918E1,1.053741761E-2,2.832885459E-2,-5.574141163E-3
1.025731980E1,8.093958721E-3,3.291033953E-2,-2.825249685E-3
1.027678043E1,1.908952370E-2,3.306305781E-2,-3.130682046E-3
1.029624105E1,3.573558852E-2,2.725984156E-2,-2.214384731E-3
1.031570168E1,4.505127668E-2,1.550069358E-2,-2.061668551E-3
1.033516230E1,5.421425030E-2,3.741546767E-3,-1.145371469E-3
1.035462293E1,6.307178736E-2,-5.726857111E-3,-8.399390499E-4
1.037408355E1,6.123919412E-2,-7.101302966E-3,-3.894262947E-3
1.039354418E1,5.482511222E-2,1.756236190E-3,-9.239329956E-3
1.041300480E1,5.253437161E-2,1.412624773E-2,-5.879573524E-3
1.043246543E1,5.177079141E-2,1.412624773E-2,1.603520010E-3
1.045192605E1,4.703658819E-2,8.170315996E-3,5.726857111E-3
1.047138668E1,4.321868345E-2,-1.908952487E-3,2.367100911E-3
1.049084730E1,4.123337194E-2,-1.931859925E-2,-4.657844082E-3
1.051030793E1,3.878991306E-2,-3.917170316E-2,-5.879573524E-3
1.052976855E1,4.260781780E-2,-4.497491941E-2,-1.756236190E-3
1.054922918E1,4.780016840E-2,-3.901898861E-2,9.926552884E-4
1.056868980E1,5.054906011E-2,-1.916588284E-2,-4.352411721E-3
1.058815053E1,4.108065739E-2,-5.115992390E-3,-1.366809942E-2
1.060761116E1,2.489273995E-2,-1.015562657E-2,-2.054032870E-2
1.062707178E1,1.756236330E-2,-2.237292193E-2,-2.084576152E-2
1.064653241E1,2.886336111E-2,-2.924515121E-2,-1.275180187E-2
1.066599303E1,4.230238497E-2,-3.917170316E-2,-6.032289471E-3
1.068545366E1,3.878991306E-2,-3.703367710E-2,-5.574141163E-3
1.070491428E1,2.657261863E-2,-1.504254527E-2,-4.963276442E-3
1.072437491E1,2.764163166E-2,-2.977965865E-3,8.399390499E-4
1.074383553E1,3.191768378E-2,-1.382081583E-2,6.032289471E-3
1.076329616E1,2.748891525E-2,-1.687514037E-2,2.061668551E-3
1.078275678E1,1.603520103E-2,-1.427896414E-2,-2.825249685E-3
1.080221741E1,8.399390616E-3,-9.392046370E-3,1.450803829E-3
1.082167803E1,9.621120058E-3,-7.864884101E-3,8.170315996E-3
1.084113866E1,1.237001177E-2,-5.268708803E-3,8.933897130E-3
1.086059928E1,4.276053514E-3,-6.948587019E-3,7.101302966E-3
1.088005991E1,-2.214384824E-2,-1.603520010E-3,4.963276442E-3
1.089952053E1,-5.283980444E-2,-2.367100911E-3,2.825249685E-3
1.091898116E1,-6.841685623E-2,-1.366809942E-2,5.345066893E-4
1.093844178E1,-5.879573524E-2,-2.527453005E-2,-6.490438245E-3
1.095790241E1,-3.283398226E-2,-3.443750367E-2,-9.544761851E-3
1.097736303E1,-1.466075517E-2,-3.504836559E-2,-4.046979360E-3
1.099682376E1,-1.328630932E-2,-2.893971838E-2,4.046979360E-3
1.101628439E1,-1.939495653E-2,-2.573267929E-2,6.337722298E-3
1.103574501E1,-1.343902480E-2,-4.360047355E-2,8.017600514E-3
1.105520564E1,2.596175298E-3,-6.101011857E-2,4.810560029E-3
1.107466626E1,2.076940238E-2,-6.421715766E-2,-4.046979360E-3
1.109412689E1,3.970621154E-2,-5.933023989E-2,-7.712167688E-3
1.111358751E1,5.100720748E-2,-3.596466407E-2,-5.726857111E-3
1.113304814E1,4.199695215E-2,-2.206749097E-2,-9.850194678E-3
1.115250876E1,2.000582218E-2,-1.733328775E-2,-1.580612548E-2
1.117196939E1,2.290742937E-3,-1.091920771E-2,-1.458439697E-2
1.119143001E1,-8.552107029E-3,-1.580612548E-2,-8.933897130E-3
1.121089064E1,-1.725693047E-2,-3.901898861E-2,-6.032289471E-3
1.123035126E1,-2.916879393E-2,-5.917752534E-2,-9.544761851E-3
1.124981189E1,-4.917461425E-2,-8.071050793E-2,-1.382081583E-2
1.126927251E1,-6.933315098E-2,-1.045342386E-1,-1.824958436E-2
1.128873314E1,-8.017600328E-2,-1.146135032E-1,-1.091920771E-2
1.130819376E1,-8.994983882E-2,-9.246965498E-2,3.588830587E-3
1.132765439E1,-8.597921580E-2,-8.575014025E-2,1.229365356E-2
1.134711501E1,-7.849612087E-2,-1.304959953E-1,1.504254527E-2
1.136657564E1,-9.880737960E-2,-1.839466542E-1,1.275180187E-2
1.138603626E1,-1.369864196E-1,-2.283870727E-1,1.153007243E-2
1.140549689E1,-1.673769504E-1,-2.793942690E-1,5.421424750E-3
1.142495762E1,-1.838703007E-1,-3.094793558E-1,-5.421424750E-3
1.144441824E1,-1.727220118E-1,-3.354411125E-1,-1.145371469E-3
1.146387887E1,-1.342375278E-1,-3.753000498E-1,1.870773360E-2
1.148333949E1,-8.368847519E-2,-3.739255965E-1,3.321577236E-2
1.150280012E1,-3.680460155E-2,-3.120755553E-1,-1.145371469E-3
1.152226074E1,8.704823442E-3,-2.222784162E-1,-7.597630471E-2
1.154172137E1,2.412915789E-2,-1.909715980E-1,-1.317177117E-1
1.156118199E1,-2.290742937E-3,-3.864483237E-1,-1.639408320E-1
1.158064262E1,-6.566796452E-3,-7.314342260E-1,-1.906661689E-1
1.160010324E1,4.841103405E-2,-7.705295682E-1,-2.409097999E-1
1.161956387E1,1.156061590E-1,-4.640281498E-1,-2.514472008E-1
1.163902449E1,1.543960720E-1,-7.933606207E-2,-1.181259751E-1
1.165848512E1,1.096502244E-1,3.026071489E-1,-7.796161622E-2
1.167794574E1,7.422006875E-2,5.325977206E-1,-1.808923334E-1
1.169740637E1,1.881463528E-1,5.156462193E-1,-2.030361742E-1
1.171686699E1,3.344484568E-1,3.847684562E-1,-4.497491941E-2
1.173632762E1,4.045451880E-1,1.222493127E-1,1.213330179E-1
1.175578824E1,5.108356476E-1,-7.414371520E-2,1.459203213E-1
1.177524887E1,6.409498453E-1,1.031597927E-1,1.057559624E-1
1.179470949E1,6.200277805E-1,4.725802541E-1,1.169042438E-1
1.181417012E1,4.569268525E-1,6.622537971E-1,1.653152853E-1
1.183363074E1,3.071122766E-1,7.147881389E-1,1.981492639E-1
1.185309137E1,1.105665267E-1,6.546179652E-1,1.796706021E-1
1.187255199E1,-1.356119812E-1,4.469239414E-1,1.097265854E-1
1.189201262E1,-2.374736816E-1,1.926514804E-1,5.230529606E-2
1.191147324E1,-1.485928595E-1,3.993528336E-2,-3.321577236E-2
1.193093387E1,-1.298087649E-2,4.963276442E-3,-7.658717036E-2
1.195039449E1,4.978547990E-2,-1.807396114E-1,-1.056032479E-1
1.196985512E1,3.283398226E-2,-3.769799173E-1,-1.282052398E-1
1.198931574E1,-1.295033395E-1,-4.014145136E-1,-8.620829135E-2
1.200877637E1,-3.338375986E-1,-2.332739830E-1,-7.322741300E-2
1.202823699E1,-4.306596816E-1,-1.372154951E-1,-1.282052398E-1
1.204769762E1,-2.096793354E-1,-4.078285992E-1,-2.931387424E-1
1.206715835E1,2.880227566E-1,-8.288671374E-1,-4.971675575E-1
1.208661897E1,5.716167092E-1,-1.144836903E0,-7.195223570E-1
1.210607960E1,-2.484692484E-1,-1.784565091E0,-3.696495593E-1
1.212554022E1,-6.444623470E-1,3.511708975E-1,6.185005885E-3
1.214500085E1,-4.668534100E-1,1.249905705E0,2.496909723E-2
1.216446147E1,4.740310609E-1,6.343067288E-1,3.862956166E-1
1.218392210E1,1.118646145E0,-2.092975378E-1,6.990583539E-1
1.220338272E1,9.208786488E-1,-1.529452652E-1,6.877573729E-1
1.222284335E1,4.541779757E-1,4.481456876E-1,5.533671379E-1
1.224230397E1,-1.023198478E-2,7.688496709E-1,5.107592940E-1
1.226176460E1,-1.965457499E-1,3.400225937E-1,5.556578636E-1
1.228122522E1,6.017018110E-2,-1.326340139E-1,6.369028687E-1
1.230068585E1,3.413206935E-1,3.424660563E-1,4.695259333E-1
1.232014647E1,2.602283955E-1,5.396226645E-1,1.963166744E-1
1.233960710E1,1.343902498E-1,1.306487024E-1,-9.781472385E-2
1.235906772E1,5.513054505E-2,-4.143953919E-1,-2.380081862E-1
1.237852835E1,8.002328873E-2,-5.898662806E-1,-3.281107545E-1
1.239798897E1,1.427896470E-1,-3.939314187E-1,-3.530034721E-1
1.241744960E1,7.742711157E-2,-9.720385820E-2,-3.624718785E-1
1.243691022E1,-1.522580534E-1,6.146826968E-2,-3.459785283E-1
1.245637085E1,-2.698495090E-1,6.666062027E-2,-2.184605151E-1
1.247583147E1,-2.095266134E-1,1.153007243E-2,-1.462257504E-1
1.249529210E1,-1.017089859E-1,-9.002619982E-2,-1.450040340E-1
1.251475272E1,-7.574722916E-2,-6.054433584E-1,-9.094249457E-2
1.253421335E1,-1.600465775E-1,-1.424460292E0,-2.590830326E-1
1.255367397E1,-3.978256881E-1,-2.951622248E0,-8.274927139E-1
1.257313470E1,-5.123628378E-1,-1.533805132E0,1.631772518E-1
1.259259533E1,9.208786488E-2,1.736306787E0,2.942077518E-1
1.261205595E1,8.066469431E-1,1.254945278E0,3.983601928E-1
1.263151658E1,1.115133643E0,2.592357397E-1,1.468366235E-1
1.265097720E1,8.506292105E-1,-7.338013500E-2,1.947895139E-1
1.267043782E1,1.855501831E-1,4.345539212E-1,2.479347438E-1
1.268989845E1,-4.001164436E-1,7.048615813E-1,2.169333547E-1
1.270935908E1,-6.939423680E-1,5.231293440E-1,2.051742077E-1
1.272881970E1,-7.307469845E-1,9.365320802E-1,7.185296714E-2
1.274828033E1,-6.676751971E-1,1.243033409E0,5.047270283E-2
1.276774095E1,-4.306596816E-1,6.427060962E-1,4.360047355E-2
1.278720158E1,-1.437059343E-1,-1.613446623E-1,-1.989128441E-1
1.280666220E1,-1.572976820E-2,-3.722457290E-1,-2.914588451E-1
1.282612282E1,3.344484791E-2,-2.412152290E-1,-3.682751060E-1
1.284558345E1,1.023198478E-2,-1.840993762E-1,-3.337612450E-1
1.286504408E1,-1.744018942E-1,-3.174206018E-1,-2.312886715E-1
1.288450470E1,-4.063777924E-1,-6.310997009E-1,-1.173623949E-1
1.290396533E1,-4.793761373E-1,-5.742892623E-1,4.130972922E-2
1.292342595E1,-2.156352699E-1,-5.023599267E-1,1.305723470E-2
1.294288658E1,2.208276242E-1,-6.941714883E-1,-1.729510874E-1
1.296234720E1,2.209803313E-1,-1.261359453E0,-2.766453922E-1
1.298180782E1,-1.797469556E-1,-1.452560067E0,-1.888335794E-1
1.300126845E1,-9.563088417E-1,-5.480220914E-1,5.505418777E-2
1.302072908E1,-7.799215913E-1,1.210199475E0,4.231002033E-1
1.304018970E1,-1.679878100E-3,1.342604399E0,4.311941862E-1
1.305965033E1,5.340485573E-1,4.547124803E-1,6.607266068E-1
1.307911095E1,4.509709179E-1,-3.253618479E-1,7.902299762E-1
1.309857158E1,-1.456912458E-1,-2.925278842E-1,5.403862596E-1
1.311803220E1,-5.913171172E-1,-5.268708803E-3,2.593884468E-1
1.313749282E1,-4.813614488E-1,1.743255407E-1,2.068540901E-1
1.315695345E1,2.321286127E-2,-2.771798894E-2,3.879754841E-1
1.317641408E1,3.397935331E-1,8.788817376E-2,3.977493346E-1
1.319587470E1,-5.833758786E-2,1.847102344E-1,1.202640012E-1
1.321533533E1,-4.062250853E-1,-2.290742996E-4,-1.158352345E-1
1.323479595E1,-5.215258002E-1,-2.076176703E-1,-1.376736462E-1
1.325425658E1,-4.897608459E-1,-2.580140233E-1,-9.017891437E-2
1.327371720E1,-4.734202027E-1,-1.176678315E-1,-7.712167688E-3
1.329317782E1,-5.088503361E-1,-2.145662531E-2,6.482802331E-2
1.331263845E1,-2.958112657E-1,1.419496983E-1,1.446985900E-1
1.333209908E1,-1.939495653E-2,4.180605710E-1,2.839757502E-1
1.335155970E1,-8.429934084E-2,5.280162692E-1,3.855320215E-1
1.337102033E1,-3.155116439E-1,4.568504989E-1,3.140608668E-1
1.339048095E1,-6.604975462E-1,-7.200568914E-2,2.863428742E-2
1.340994158E1,-9.828814268E-1,-5.240456462E-1,-4.565450549E-1
1.342940220E1,-1.740811944E0,-2.880914688E0,3.087157905E-1
1.344886282E1,-5.317577720E-1,4.451677203E-2,-1.977674663E-2
1.346832345E1,1.134070516E0,2.030590773E0,2.424369603E-1
1.348778408E1,1.225700140E0,1.517464519E0,-1.633299738E-1
1.350724480E1,5.054906011E-1,5.251146555E-1,-2.645808160E-1
1.352670543E1,-6.352993846E-2,4.061487317E-1,-3.050506115E-1
1.354616605E1,-2.333503515E-1,8.681151867E-1,-3.795761168E-1
1.356562668E1,-1.157588735E-1,1.145447850E0,-2.758817971E-1
1.358508730E1,1.056796089E-1,8.755983114E-1,-1.036179364E-1
1.360454793E1,1.018617004E-1,5.229766369E-1,-2.542724647E-2
1.362400855E1,-7.467821985E-2,6.993638277E-1,-6.421715766E-2
1.364346918E1,-1.794415265E-1,8.583413959E-1,-1.414915472E-1
1.366292980E1,-2.109010667E-1,5.863538384E-1,-2.157116234E-1
1.368239043E1,-7.849612087E-2,3.559050858E-1,-2.335794270E-1
1.370185105E1,2.328922004E-1,4.037052691E-1,-1.840993762E-1
1.372131168E1,5.465712547E-1,4.117992222E-1,-1.364519149E-1
1.374077230E1,6.779071689E-1,2.432005405E-1,-6.711876392E-2
1.376023293E1,5.592467189E-1,1.450803829E-3,-6.620246917E-2
1.377969355E1,4.746419191E-1,-3.475056887E-1,-9.735657275E-2
1.379915418E1,5.453495383E-1,-5.776489973E-1,-1.188895553E-1
1.381861480E1,6.345357895E-1,-6.906589866E-1,-2.795470059E-1
1.383807543E1,8.753692508E-1,-2.903898358E-1,-6.202568412E-1
1.385753605E1,5.693259835E-1,-2.054872751E0,-2.409097999E-1
1.387699668E1,4.514290690E-1,-8.594104052E-1,5.306124091E-1
1.389645730E1,8.628465235E-2,1.035950303E0,-4.657844082E-3
1.391591793E1,5.317577720E-1,1.677587330E-1,1.622609496E-1
1.393537855E1,6.618719697E-1,-9.343940616E-1,8.290198445E-1
1.395483918E1,4.389063418E-1,-7.520508766E-1,9.850957990E-1
1.397429980E1,9.621120058E-3,-3.283398226E-3,5.866592526E-1
1.399376053E1,-6.068941355E-1,4.657080472E-1,1.275943816E-1
1.401322116E1,-8.188642263E-1,3.209330738E-1,4.802924395E-2
1.403268178E1,-3.181078434E-1,4.354702234E-1,1.967748106E-1
1.405214241E1,-2.762635946E-1,5.610029697E-1,1.847102344E-1
1.407160303E1,-7.382301092E-1,2.714530230E-1,-4.528035223E-2
1.409106366E1,-1.074511170E0,-1.954003721E-1,-1.274416596E-1
1.411052428E1,-1.031445146E0,-4.191296101E-1,-1.703549176E-1
1.412998491E1,-6.994401813E-1,-1.879172772E-1,-2.683987021E-1
1.414944553E1,-2.127336562E-1,1.619555205E-1,-2.960403562E-1
1.416890616E1,2.976438701E-1,4.851029813E-1,-2.212094069E-1
1.418836678E1,7.011200786E-1,6.136900187E-1,-4.657844082E-3
1.420782741E1,7.756455541E-1,3.835467100E-1,1.999818534E-1
1.422728803E1,3.170388341E-1,-1.046105940E-2,2.242637277E-1
1.424674866E1,-7.240274549E-1,-9.992983937E-1,-7.887791097E-2
1.426620928E1,-1.605810761E0,-9.334777594E-1,-7.738893032E-1
1.428566991E1,-1.246164203E0,-3.290346861E0,7.334195375E-1
1.430513053E1,-6.789761782E-1,-4.864010960E-2,1.002047300E0
1.432459116E1,5.905535221E-1,1.341840863E0,3.435350657E-1
1.434405178E1,1.098182201E0,1.607414365E0,-1.347720474E-1
1.436351241E1,1.156825185E0,9.977712631E-1,-3.694968224E-1
1.438297303E1,1.180038095E0,2.697731555E-1,-2.057850659E-1
1.440243366E1,1.046258688E0,-2.924515121E-2,-3.214675933E-2
1.442189428E1,8.394809365E-1,-1.076649129E-2,1.188895553E-1
1.444135491E1,7.044798136E-1,4.295142889E-1,1.451567411E-1
1.446081553E1,5.519163013E-1,9.945642352E-1,-9.857830405E-2
1.448027616E1,3.344484568E-1,9.626465440E-1,-2.341902852E-1
1.449973678E1,1.505781710E-1,5.649735332E-1,-3.048978746E-1
1.451919741E1,-6.734783947E-2,3.212385178E-1,-4.049269855E-1
1.453865803E1,-2.419024557E-1,1.424078494E-1,-4.484511018E-1
1.455811866E1,-2.345720828E-1,5.199986324E-2,-3.375791609E-1
1.457757928E1,-1.197294965E-1,1.016326249E-1,-1.262199283E-1
1.459703991E1,-5.482511222E-2,-8.788817376E-2,-2.832885459E-2
1.461650053E1,1.295033395E-1,-3.933205605E-1,-6.788235158E-2
1.463596116E1,3.362810612E-1,-7.995456457E-1,-1.161406636E-1
1.465542178E1,3.213148713E-1,-1.241048217E0,-2.856556475E-1
1.467488241E1,1.976147592E-1,-1.293429852E0,-4.832704067E-1
1.469434314E1,2.831358314E-1,-1.427667379E0,-7.929788232E-1
1.471380376E1,4.957167804E-1,-1.253723621E0,-4.253909588E-1
1.473326439E1,4.547888339E-1,5.695550442E-1,-4.894553870E-2
1.475272501E1,4.951058924E-1,1.049847484E0,1.587484777E-1
1.477218564E1,6.411026120E-1,4.218784869E-1,4.731911421E-1
1.479164626E1,6.676751971E-1,-9.262236953E-2,8.077923059E-1
1.481110689E1,4.334085584E-1,-1.962403022E-2,6.888263822E-1
1.483056751E1,-3.524689674E-1,3.085630834E-1,3.372737169E-1
1.485002814E1,-1.262199402E0,4.893790483E-1,8.987347782E-2
1.486948876E1,-1.087644696E0,2.983310819E-1,2.439641207E-1
1.488894939E1,-2.577849329E-1,1.776852906E-1,4.000400603E-1
1.490841001E1,-1.551596522E-1,3.525453210E-1,2.821431756E-1
1.492787064E1,-6.220130324E-1,2.931387424E-1,2.878700197E-2
1.494733126E1,-8.715513349E-1,-9.476039559E-2,-8.376483619E-2
1.496679189E1,-7.429642677E-1,-3.504073024E-1,-1.052978188E-1
1.498625251E1,-3.370446563E-1,-2.735910714E-1,-1.028543562E-1
1.500571314E1,8.475748450E-2,-1.122464053E-2,-1.213330179E-1
1.502517376E1,2.594648004E-1,2.088394016E-1,-1.718820781E-1
1.504463439E1,2.658788860E-1,3.204749227E-1,-1.793651730E-1
1.506409501E1,2.981020212E-1,2.338848561E-1,-9.476039559E-2
1.508355564E1,1.217148080E-1,6.207913160E-2,4.222602770E-2
1.510301626E1,-1.417206228E-1,-6.504946351E-1,-9.308052063E-2
1.512247689E1,-5.086976290E-1,-1.403996348E0,4.085158184E-2
1.514193751E1,-1.159268618E0,-3.666639566E0,1.032437801E0
1.516139814E1,6.490437984E-1,9.201150388E-2,1.278998107E-1
1.518085887E1,1.660788655E0,1.449505806E0,4.095084667E-1
1.520031949E1,1.271667719E0,9.846376777E-1,-1.695913374E-1
1.521978012E1,6.588176489E-1,9.697478265E-3,-1.941786408E-1
1.523924074E1,2.423606068E-1,-5.732202530E-1,2.130390890E-2
1.525870137E1,6.414080411E-2,-2.048687786E-1,2.145662531E-2
1.527816199E1,2.026543915E-1,1.868482679E-1,1.076649129E-2
1.529762262E1,3.071122766E-1,2.375500351E-1,3.459021822E-2
1.531708324E1,3.680460155E-2,2.995528281E-1,-4.925097153E-2
1.533654387E1,-3.882045746E-1,3.377318680E-1,-1.402698308E-1
1.535600449E1,-6.189587116E-1,1.853211075E-1,-9.705114365E-2
1.537546512E1,-5.931497216E-1,-7.948877662E-2,-8.017600514E-3
1.539492574E1,-3.917170465E-1,-2.073122412E-1,2.237292193E-2
1.541438637E1,-1.713475734E-1,-1.960112303E-1,1.450803829E-3
1.543384699E1,3.466657549E-2,-1.738673896E-1,-3.367391974E-2
1.545330762E1,1.026252806E-1,-1.587484777E-1,-4.619665071E-2
1.547276824E1,-1.710421406E-2,-1.648571342E-1,-3.489565104E-2
1.549222887E1,-2.331976295E-1,-3.299433291E-1,-8.743002266E-2
1.551168949E1,-2.448040545E-1,-5.759691000E-1,-1.883754283E-1
1.553115012E1,-1.521053314E-1,-4.038579762E-1,-2.105192691E-1
1.555061074E1,-1.600465775E-1,-9.353103638E-1,-2.170860767E-1
1.557007137E1,-1.798996776E-1,-1.571526051E0,4.774671793E-1
1.558953199E1,-4.763218164E-1,1.703930974E0,1.627191007E-1
1.560899262E1,-3.970620930E-1,1.309006810E0,1.112537459E-1
1.562845324E1,4.993819445E-2,4.464657903E-1,2.775616944E-1
1.564791387E1,4.619664848E-1,-3.384954333E-1,5.292379856E-1
1.566737449E1,4.783071280E-1,-2.252563834E-2,4.417316020E-1
1.568683512E1,1.710421443E-1,6.077340841E-1,1.821140647E-1
1.570629574E1,-2.419024557E-1,3.969857395E-1,-1.030834299E-2
1.572575647E1,-2.756527364E-1,2.621373534E-1,-8.330668509E-2
1.574521710E1,-2.138026804E-2,6.921861768E-1,-1.504254527E-2
1.576467772E1,1.737910360E-1,5.590176582E-1,-1.272889525E-1
1.578413835E1,2.898553312E-1,-3.642281145E-2,-1.619555205E-1
1.580359897E1,2.990183234E-1,-4.531853199E-1,-1.799760312E-1
1.582305960E1,2.174678594E-1,-4.534907341E-1,-1.656207144E-1
1.584252012E1,7.024945319E-2,-3.052033186E-1,-1.668424457E-1
1.586198085E1,-9.865466505E-2,-1.054505333E-1,-2.121991515E-1
1.588144147E1,-1.420260668E-1,1.813504845E-1,-2.088394016E-1
1.590090210E1,-1.386663020E-1,3.965275884E-1,-1.628718227E-1
1.592036272E1,-2.796233594E-1,4.518108666E-1,-3.810269013E-2
1.593982335E1,-6.800451875E-1,-3.459021822E-2,-1.244636998E-2
1.595928397E1,-9.663881063E-1,-3.905487537E0,2.893971838E-2
1.597874460E1,-5.090031028E-1,6.085740402E-2,-3.428478539E-2
1.599820522E1,2.532034516E-1,2.090913773E0,2.634354308E-2
1.601766585E1,8.086322546E-1,1.184237719E0,-6.788235158E-2
1.603712647E1,8.361211419E-1,-2.948186100E-1,3.535379842E-2
1.605658710E1,5.395463109E-1,-5.565741658E-1,2.532798052E-1
1.607604772E1,5.742128938E-2,1.518762559E-1,1.476002038E-1
1.609550835E1,-3.291034102E-1,5.768854022E-1,-4.329504073E-2
1.611496897E1,-4.274526238E-1,1.392008066E-1,-5.245801434E-2
1.613442960E1,-2.261726856E-1,4.436405376E-2,-1.092684343E-1
1.615389022E1,-1.366809905E-1,2.474765927E-1,-1.291215420E-1
1.617335085E1,-1.931859851E-1,4.570032060E-1,-1.876118481E-1
1.619281147E1,-1.831067204E-1,4.310414493E-1,-2.479347438E-1
1.621227210E1,-1.711948514E-1,3.021489978E-1,-2.482401729E-1
1.623173272E1,-2.243400961E-1,1.891390085E-1,-2.079230994E-1
1.625119335E1,-2.461785078E-1,6.345357746E-2,-1.753945500E-1
1.627065397E1,-2.008218020E-1,1.687514037E-2,-1.066722646E-1
1.629011460E1,-1.044578776E-1,-3.504836559E-2,-3.718639165E-2
1.630957522E1,-8.826996386E-2,-2.451858521E-1,-7.582359016E-2
1.632903585E1,-1.275180280E-1,-5.683333278E-1,-1.874591261E-1
1.634849647E1,-2.290742993E-1,-7.019599676E-1,-2.853502035E-1
1.636795710E1,-2.820668221E-1,-7.018072605E-1,-3.710239828E-1
1.638741772E1,-3.688096106E-1,-5.362629294E-1,-4.435641766E-1
1.640687835E1,-3.068068326E-1,6.681333482E-2,-6.578249931E-1
1.642633908E1,2.049451321E-1,-5.855902433E-1,-3.960694373E-1
1.644579970E1,6.791289449E-1,5.629882812E-1,-8.804088831E-2
1.646526033E1,5.134318471E-1,1.549993038E0,8.437569439E-2
1.648472095E1,6.623301506E-1,1.414533734E0,5.803979039E-1
1.650418158E1,3.130682111E-1,5.495492220E-1,1.060079455E0
1.652364220E1,-3.008508980E-1,2.960403562E-1,8.836922646E-1
1.654310283E1,-6.268999577E-1,4.887681901E-1,4.997637570E-1
1.656256345E1,-5.320632458E-1,3.172678947E-1,3.925569654E-1
1.658202408E1,-9.529490769E-2,-3.823249936E-1,4.861720204E-1
1.660148470E1,9.162971377E-2,-2.112828493E-1,4.576140642E-1
1.662094532E1,-1.298087686E-1,3.849211633E-1,2.102138400E-1
1.664040595E1,-5.253437161E-2,3.610974550E-1,-4.222602770E-2
1.665986658E1,4.434878230E-1,-9.246965498E-2,-1.097265854E-1
1.667932720E1,9.998329282E-1,-4.099666178E-1,-1.133917719E-1
1.669878782E1,1.310763121E0,-4.550178945E-1,-1.559995860E-1
1.671824845E1,1.233794093E0,-3.394117355E-1,-2.505309284E-1
1.673770908E1,9.303470850E-1,-1.865428388E-1,-3.439932168E-1
1.675716970E1,6.656898856E-1,3.367391974E-2,-3.708712757E-1
1.677663032E1,3.956876695E-1,2.800051570E-1,-3.270417452E-1
1.679609095E1,2.932151034E-2,2.092975378E-1,-2.027307451E-1
1.681555158E1,-2.231183648E-1,-8.193223923E-2,-2.542724647E-2
1.683501220E1,-5.097666383E-1,-5.329031348E-1,2.013563067E-1
1.685447283E1,-1.197753072E0,-9.108757377E-1,2.555705607E-1
1.687393345E1,-1.089477301E0,-3.100062370E0,1.709657758E-1
1.689339408E1,-7.452550530E-1,1.101312876E0,1.601229310E-1
1.691285480E1,-1.154534444E-1,2.348546028E0,9.781472385E-2
1.693231543E1,-7.070759684E-2,1.165453672E0,-5.765036494E-2
1.695177605E1,-1.076649204E-1,-1.984546930E-1,6.574432552E-2
1.697123668E1,-9.773836285E-2,-4.809796512E-1,1.598175019E-1
1.699069730E1,-1.408043355E-1,-4.115701467E-2,6.131555140E-2
1.701015793E1,-3.023780696E-2,7.444914430E-2,-1.183550525E-2
1.702961855E1,2.098320574E-1,-6.513345987E-2,-1.534797717E-2
1.704907918E1,3.646862805E-1,-4.497491941E-2,-6.345357746E-2
1.706853980E1,2.609919906E-1,-8.880446851E-2,-1.424078494E-1
1.708800043E1,1.908952370E-2,-1.752418280E-1,-2.114355713E-1
1.710746105E1,-1.792888194E-1,-2.490037531E-1,-2.541961074E-1
1.712692168E1,-1.945604384E-1,-1.828776449E-1,-2.708421648E-1
1.714638230E1,-9.132428467E-2,-1.393535286E-1,-2.337321341E-1
1.716584293E1,-1.618791744E-2,-1.711184978E-1,-1.840993762E-1
1.718530355E1,2.367101051E-2,-1.996764243E-1,-1.553887278E-1
1.720476418E1,-6.032289565E-2,-2.644280791E-1,-1.129336283E-1
1.722422480E1,-2.064722925E-1,-3.869064748E-1,-5.154171586E-2
1.724368543E1,-1.537852138E-1,-4.276817143E-1,3.275762498E-2
1.726314605E1,1.301141977E-1,-5.913934708E-1,2.405280061E-2
1.728260668E1,6.391173005E-1,-6.811906099E-1,1.000291109E-2
1.730206730E1,9.514219165E-1,-5.522981286E-1,-1.476002038E-1
1.732152793E1,2.790125012E-1,-2.250044107E0,3.864483237E-1
1.734098855E1,-3.257436454E-1,1.161483049E0,9.926552884E-4
1.736044918E1,-3.304778337E-1,1.812664866E0,-4.130972922E-2
1.737990991E1,1.090393662E-1,8.604794145E-1,4.588358104E-1
1.739937053E1,5.439751148E-1,1.718057133E-2,8.723912835E-1
1.741883116E1,3.260490894E-1,2.186132371E-1,6.028471589E-1
1.743829178E1,-1.882990748E-1,9.667698741E-1,4.360047355E-2
1.745775241E1,-5.309942365E-1,1.211421251E0,-1.827249229E-1
1.747721303E1,-4.889972508E-1,6.002510190E-1,1.046105940E-2
1.749667366E1,-5.360338464E-2,4.446332157E-1,1.283579618E-1
1.751613428E1,-6.383536756E-2,5.011382103E-1,8.116865903E-2
1.753559491E1,-3.987419903E-1,2.826013267E-1,-5.551233515E-2
1.755505553E1,-5.126682520E-1,-1.196531355E-1,-5.474875495E-2
1.757451616E1,-3.515526950E-1,-2.668715417E-1,1.962403022E-2
1.759397678E1,-8.078686893E-2,-1.269835234E-1,7.276926935E-2
1.761343741E1,1.652389169E-1,1.373682171E-1,6.742420048E-2
1.763289803E1,3.478874862E-1,4.276817143E-1,1.168278884E-2
1.765235866E1,3.982838392E-1,5.637518167E-1,-2.924515121E-2
1.767181928E1,3.225366175E-1,3.678169549E-1,-6.039925665E-2
1.769127991E1,2.412915826E-1,-3.090212345E-1,-5.627591908E-2
1.771074053E1,-1.724165827E-1,-1.744095325E0,9.659299254E-2
1.773020116E1,-2.907716334E-1,-2.574871302E0,1.827249229E-1
1.774966178E1,-1.166751757E-1,-2.550894976E0,1.477529258E-1
1.776912251E1,3.410152495E-1,1.063744664E0,-1.312595755E-1
1.778858314E1,7.255546451E-1,1.332830548E0,-9.827287495E-2
1.780804376E1,7.296779752E-1,7.086794972E-1,-3.794997558E-2
1.782750439E1,8.103121519E-1,1.010217592E-1,8.254310489E-2
1.784696501E1,6.371319890E-1,7.338013500E-2,5.108356848E-2
1.786642564E1,3.927860558E-1,4.770090282E-1,-1.132390574E-1
1.788588626E1,1.957821548E-1,6.953932047E-1,-1.705076247E-1
1.790534689E1,9.346231073E-2,5.522981286E-1,-1.399643868E-1
1.792480751E1,4.948004708E-2,4.799106419E-1,-8.773545176E-2
1.794426814E1,2.367101051E-2,4.348593652E-1,-1.028543562E-1
1.796372876E1,-9.056070447E-2,3.636936247E-1,-1.529452652E-1
1.798318939E1,-2.625191510E-1,1.515708268E-1,-2.419788092E-1
1.800265001E1,-3.481929302E-1,-4.696023092E-2,-2.836703360E-1
1.802211064E1,-3.472766280E-1,-2.183077931E-1,-2.877936661E-1
1.804157126E1,-3.692677617E-1,-2.247218788E-1,-2.563341260E-1
1.806103189E1,-3.568977416E-1,-1.411861181E-1,-1.642462611E-1
1.808049251E1,-2.806923687E-1,-1.749363989E-1,-5.871937796E-2
1.809995314E1,-2.929096520E-1,-4.400517046E-1,-9.697478265E-3
1.811941376E1,-2.583957911E-1,-8.488729596E-1,-3.031416424E-2
1.813887449E1,-2.150243968E-1,-1.153236389E0,-1.503490955E-1
1.815833512E1,-2.145662606E-1,-1.103603601E0,-3.334558010E-1
1.817779574E1,-3.283398226E-2,-9.067524076E-1,-4.066068828E-1
1.819725637E1,1.099556610E-1,-9.944115281E-1,-5.416079760E-1
1.821671699E1,3.568977416E-1,-9.231694043E-2,-3.932442144E-2
1.823617762E1,3.306305707E-1,1.458516002E0,3.459021822E-2
1.825563824E1,6.174315810E-1,1.078558087E0,2.871828079E-1
1.827509887E1,7.661771774E-1,1.874591261E-1,6.634755135E-1
1.829455949E1,5.479456782E-1,1.549305767E-1,7.367792726E-1
1.831402012E1,1.470656991E-1,6.596575975E-1,3.896553814E-1
1.833348074E1,-4.302015305E-1,8.201622963E-1,6.879864633E-2
1.835294137E1,-7.779362798E-1,2.260963321E-1,-1.259908639E-2
1.837240199E1,-5.736020207E-1,-8.475748822E-3,1.309541315E-1
1.839186262E1,-4.230238497E-1,3.253618479E-1,1.222493127E-1
1.841132324E1,-5.265654325E-1,2.468657345E-1,-4.253146052E-2
1.843078397E1,-5.642863512E-1,-1.147662178E-1,-1.086575761E-1
1.845024460E1,-4.696022868E-1,-4.021781087E-1,-1.004109010E-1
1.846970522E1,-2.968802750E-1,-4.324159026E-1,-5.215258151E-2
1.848916585E1,-1.579085439E-1,-2.697731555E-1,-8.017600514E-3
1.850862647E1,-1.009454057E-1,4.505127668E-3,1.870773360E-2
1.852808710E1,-8.826996386E-2,2.465602905E-1,-2.298378758E-2
1.854754772E1,-1.198822111E-1,3.000109792E-1,-1.404225379E-1
1.856700835E1,-1.401934624E-1,1.627191007E-1,-1.585957706E-1
1.858646897E1,-1.818849891E-1,1.660788655E-1,-2.985601686E-2
1.860592960E1,-3.839285076E-1,1.718820781E-1,-4.833467677E-2
1.862539022E1,-5.532907844E-1,-2.209727049E0,1.049923822E-1
1.864485085E1,-2.182314396E-1,-3.126635075E0,5.119810700E-1
1.866431147E1,2.018908113E-1,1.485852242E0,-1.642462611E-1
1.868377210E1,6.559160352E-1,1.788383007E0,-1.503490955E-1
1.870323282E1,9.605848789E-1,5.541307330E-1,-3.462839723E-1
1.872269345E1,9.790635109E-1,-6.113992929E-1,-1.451567411E-1
1.874215408E1,5.816959739E-1,-7.680860758E-1,5.383246019E-2
1.876161470E1,9.529490769E-2,-1.207221523E-1,5.963567272E-2
1.878107532E1,-1.872300506E-1,2.221257091E-1,4.543306679E-2
1.880053595E1,-7.834340632E-2,1.790597439E-1,6.650790572E-2
1.881999658E1,2.947422490E-2,4.604393244E-2,-5.184714869E-2
1.883945720E1,-1.525634825E-1,1.060613990E-1,-1.727983803E-1
1.885891783E1,-4.309650958E-1,2.421315312E-1,-2.433532625E-1
1.887837845E1,-5.229002237E-1,2.810741663E-1,-2.491564751E-1
1.889783908E1,-4.969384968E-1,2.076176703E-1,-2.166279256E-1
1.891729970E1,-4.025598764E-1,1.074358448E-1,-1.870009750E-1
1.893676032E1,-2.425133139E-1,-9.239329956E-3,-1.677587330E-1
1.895622095E1,-1.039997265E-1,-9.903645515E-2,-1.308014244E-1
1.897568158E1,-3.802633286E-2,-1.834885031E-1,-1.175151095E-1
1.899514220E1,-6.520981342E-2,-4.070650041E-1,-1.393535286E-1
1.901460282E1,7.941242307E-2,-5.539780259E-1,-1.486692131E-1
1.903406345E1,6.114756465E-1,-3.913352489E-1,-1.799760312E-1
1.905352408E1,1.155450702E0,-5.280162692E-1,-2.401462197E-1
1.907298480E1,7.812960744E-1,-2.471024275E0,2.629009187E-1
1.909244543E1,1.934914142E-1,3.204749227E-1,-4.171442986E-1
1.911190605E1,1.711948514E-1,1.368108034E0,-5.113701820E-1
1.913136668E1,7.157807946E-1,1.255861640E0,-1.118646115E-1
1.915082730E1,5.691732764E-1,4.452440739E-1,5.119810700E-1
1.917028793E1,-1.988364905E-1,4.347066581E-1,4.501309991E-1
1.918974855E1,-7.363975048E-1,8.216894865E-1,5.276344717E-2
1.920920918E1,-5.768090487E-1,5.306124091E-1,1.417969912E-1
1.922866980E1,5.299251899E-2,-2.074649483E-1,3.614028692E-1
1.924813043E1,2.835939825E-1,2.525162399E-1,4.342485070E-1
1.926759105E1,-1.125518382E-1,5.880337358E-1,2.151007652E-1
1.928705168E1,-4.847212136E-1,3.473529816E-1,-2.008217946E-2
1.930651230E1,-4.312705398E-1,-5.077813566E-2,-8.422297984E-2
1.932597293E1,-3.909534588E-2,-7.444914430E-2,-2.634354308E-2
1.934543355E1,2.730565667E-1,1.879172772E-1,4.100430012E-2
1.936489428E1,3.568977416E-1,3.730092943E-1,2.237292193E-2
1.938435491E1,2.139553875E-1,3.410916328E-1,-1.947131567E-2
1.940381553E1,-4.550942779E-2,2.138790339E-1,3.291033953E-2
1.942327616E1,-2.495382577E-1,-3.382663801E-2,1.810450554E-1
1.944273678E1,-1.718057245E-1,-4.502837062E-1,3.723984361E-1
1.946219741E1,-1.481347065E-2,-8.119156361E-1,4.536434710E-1
1.948165803E1,-2.988655865E-1,-1.495015144E0,2.928332984E-1
1.950111866E1,8.949168772E-2,-2.946735382E0,-2.942077518E-1
1.952057928E1,8.335250020E-1,4.472293854E-1,4.818195850E-2
1.954004001E1,1.131932378E0,1.265940905E0,1.359937787E-1
1.955950064E1,1.296713233E0,5.141190886E-1,7.887791097E-2
1.957896126E1,1.218675256E0,4.085158184E-2,7.254019380E-3
1.959842189E1,8.382592201E-1,4.046979360E-3,5.337430909E-2
1.961788251E1,4.413498044E-1,3.536143601E-1,1.198822167E-2
1.963734314E1,3.327685893E-1,3.974438906E-1,5.184714869E-2
1.965680376E1,5.122101307E-1,1.912770271E-1,5.261072889E-2
1.967626439E1,5.065596104E-1,1.666897237E-1,-1.137735695E-2
1.969572501E1,2.385426909E-1,2.277761996E-1,-5.474875495E-2
1.971518564E1,-5.940660089E-2,1.201112866E-1,-1.830303669E-1
1.973464626E1,-3.025307953E-1,-7.658717036E-2,-2.827540338E-1
1.975410689E1,-5.100721121E-1,-1.902080178E-1,-3.293324709E-1
1.977356751E1,-6.504182816E-1,-2.989419401E-1,-3.511708975E-1
1.979302824E1,-6.893609166E-1,-3.398698866E-1,-2.887099683E-1
1.981248887E1,-6.084213257E-1,-2.384663373E-1,-1.766162813E-1
1.983194949E1,-4.071413875E-1,-1.224020272E-1,-9.659299254E-2
1.985141012E1,-3.480401933E-1,-2.358701676E-1,-6.543888897E-2
1.987087074E1,-4.728093445E-1,-5.747473836E-1,-5.810851231E-2
1.989033137E1,-7.806851864E-1,-6.669879556E-1,-3.810269013E-2
1.990979199E1,-8.625410795E-1,-6.796634197E-1,-8.849903196E-2
1.992925262E1,-6.511818767E-1,-7.456368208E-1,-1.992182732E-1
1.994871324E1,-2.197586000E-1,-1.080848813E0,-5.139663815E-1
1.996817387E1,3.901898861E-1,-8.409317136E-1,-3.261254430E-1
1.998763449E1,2.547306120E-1,1.045418739E0,-1.715766490E-1
2.000709522E1,2.961167097E-1,1.244255185E0,3.642281145E-2
2.002655585E1,1.013882875E0,6.225475669E-1,4.595993757E-1
2.004601647E1,1.068555236E0,3.494910002E-1,9.140827656E-1
2.006547710E1,4.268417656E-1,7.922152877E-1,6.552288532E-1
2.008493772E1,-3.159697950E-1,1.205618024E0,1.390480995E-1
2.010439835E1,-8.080213666E-1,6.566032767E-1,-2.298378758E-2
2.012385897E1,-4.865537882E-1,1.094211563E-1,1.462257504E-1
2.014331960E1,-1.148425788E-1,2.282343507E-1,2.877936661E-1
2.016278022E1,-2.716821134E-1,2.622900605E-1,1.269835234E-1
2.018224085E1,-4.883863926E-1,8.972076327E-2,-4.879282415E-2
2.020170147E1,-5.253437161E-1,-1.734092385E-1,-1.550832987E-1
2.022116210E1,-2.646571696E-1,-1.489746422E-1,-2.041051984E-1
2.024062272E1,1.488982886E-1,-2.664897591E-2,-2.019671649E-1
2.026008335E1,4.524980783E-1,1.818086356E-1,-1.821140647E-1
2.027954397E1,5.752819180E-1,3.597230017E-1,-1.514181048E-1
2.029900470E1,5.375609994E-1,4.331794977E-1,-9.781472385E-2
2.031846533E1,3.558287323E-1,2.835176289E-1,-4.505127668E-3
2.033792595E1,-4.276053514E-3,8.513928205E-2,6.559160352E-2
2.035738658E1,-4.995346665E-1,-8.697187155E-2,1.347720474E-1
2.037684720E1,-1.369253397E0,-4.776198864E-1,3.090212345E-1
2.039630782E1,-1.592524529E0,-3.609218121E0,6.598103046E-1
2.041576845E1,-9.239329696E-1,-1.242575288E0,2.088394016E-1
2.043522918E1,-3.772090003E-2,1.889022946E0,-2.099847607E-2
2.045468980E1,7.721330523E-1,1.469664335E0,3.306305781E-2
2.047415043E1,7.956513762E-1,1.132390574E-1,1.462257504E-1
2.049361105E1,4.831940532E-1,-6.472876072E-1,3.409388959E-1
2.051307168E1,3.283398226E-2,-2.335794270E-1,2.483928949E-1
2.053253230E1,-7.589995116E-2,3.346775472E-1,2.390008420E-2
2.055199293E1,-6.963858753E-2,4.847975671E-1,-5.535962060E-2
2.057145355E1,-1.704312712E-1,4.363865256E-1,-1.463784724E-1
2.059091418E1,-3.538434207E-1,3.342193961E-1,-2.044106275E-1
2.061037480E1,-5.244274139E-1,3.523926139E-1,-2.039524764E-1
2.062983543E1,-4.679224193E-1,2.696204484E-1,-1.030070707E-1
2.064929605E1,-2.109010667E-1,1.075885594E-1,-7.635809743E-5
2.066875668E1,7.910698652E-2,1.301905513E-1,1.259908639E-2
2.068821741E1,2.179260105E-1,3.571268320E-1,-1.603520010E-3
2.070767803E1,1.336266696E-1,3.285689056E-1,-5.978839099E-2
2.072713866E1,-9.101885557E-2,5.520690605E-2,-1.434768587E-1
2.074659928E1,-3.407098353E-1,-1.074358448E-1,-1.863901168E-1
2.076605991E1,-4.228711426E-1,-2.025780380E-1,-3.088684976E-1
2.078552053E1,-3.039052188E-1,-4.650971591E-1,-3.641517758E-1
2.080498116E1,-5.925388262E-2,-9.598976374E-1,-4.166861475E-1
2.082444178E1,3.179551065E-1,-2.657185316E0,4.327213466E-1
2.084390241E1,2.970330119E-1,4.724275470E-1,-1.071304083E-1
2.086336314E1,2.588539422E-1,7.625883222E-1,-2.041051984E-1
2.088282376E1,6.345357895E-1,-2.731329203E-1,1.666897237E-1
2.090228439E1,8.197805285E-1,-9.203441739E-1,7.224239707E-1
2.092174501E1,4.466948807E-1,-5.527562499E-1,7.112756968E-1
2.094120564E1,-1.999054998E-1,4.197404683E-1,1.393535286E-1
2.096066626E1,-7.588467598E-1,9.672279954E-1,-2.917642891E-1
2.098012689E1,-8.921679854E-1,5.947532058E-1,-3.284161687E-1
2.099958751E1,-3.642281294E-1,1.992182732E-1,-2.100611329E-1
2.101904814E1,-6.795870513E-2,6.419425011E-1,-7.108938694E-2
2.103850887E1,-1.160643063E-2,6.065123677E-1,-1.556941569E-1
2.105796949E1,1.327103674E-1,1.908188909E-1,-9.995274991E-2
2.107743012E1,1.394298822E-1,-1.292742640E-1,-8.269581944E-2
2.109689074E1,-1.466075517E-2,-1.526398361E-1,-1.729510874E-1
2.111635137E1,-1.731801629E-1,1.367573589E-1,-2.868773639E-1
2.113581199E1,-1.956294477E-1,5.141190886E-1,-3.267363012E-1
2.115527262E1,-4.612028971E-2,6.488147378E-1,-2.703840137E-1
2.117473324E1,-3.940077871E-2,3.992764950E-1,-1.895971596E-1
2.119419387E1,-1.788306683E-1,-1.446985900E-1,-1.840230078E-2
2.121365449E1,-3.947713673E-1,-9.623411298E-1,1.737146676E-1
2.123311512E1,-9.976949096E-1,-2.139935732E0,1.503490955E-1
2.125257585E1,-9.285144806E-1,-3.108156443E0,3.100902438E-1
2.127203647E1,2.295324355E-1,6.028471589E-1,9.308052063E-2
2.129149710E1,1.373224020E0,1.638873816E0,2.187659442E-1
2.131095772E1,1.579543591E0,9.684497714E-1,1.973856837E-1
2.133041835E1,1.336113930E0,-2.237292193E-2,1.636354029E-1
2.134987897E1,7.550288439E-1,-4.050796926E-1,2.128100246E-1
2.136933970E1,1.606574357E-1,-8.162680268E-2,8.132137358E-2
2.138880033E1,-1.377500147E-1,1.854738146E-1,1.015562657E-2
2.140826095E1,-1.360701323E-1,1.414915472E-1,-3.657552972E-2
2.142772158E1,-1.493564397E-1,1.876118481E-1,-9.292780608E-2
2.144718220E1,-3.155116439E-1,2.176969349E-1,-1.324812919E-1
2.146664282E1,-4.825831652E-1,2.512181364E-2,-1.567631811E-1
2.148610345E1,-5.645917654E-1,-1.636354029E-1,-1.702021956E-1
2.150556408E1,-5.635227561E-1,-2.102138400E-1,-2.016617358E-1
2.152502470E1,-5.268708467E-1,-3.565159440E-1,-2.598465979E-1
2.154448532E1,-4.616610706E-1,-5.929206014E-1,-3.081049323E-1
2.156394595E1,-3.332267404E-1,-6.952404976E-1,-2.830594778E-1
2.158340658E1,-1.600465775E-1,-6.155226231E-1,-1.915824711E-1
2.160286720E1,-1.325576603E-1,-6.573668718E-1,-9.964732081E-2
2.162232793E1,-7.223475724E-2,-8.635337353E-1,-8.498656005E-2
2.164178855E1,-1.128572673E-1,-8.375719786E-1,-1.889862865E-1
2.166124918E1,5.345067009E-3,-8.090140224E-1,-3.638463318E-1
2.168070980E1,3.784307241E-1,-8.591049314E-1,-4.794524908E-1
2.170017043E1,5.832231641E-1,-1.257846951E0,-7.438042164E-1
2.171963105E1,4.798342884E-1,-4.887681901E-1,-4.198931754E-1
2.173909168E1,2.901607752E-1,1.348865747E0,-3.128391206E-1
2.175855230E1,-1.299614757E-1,1.144073367E0,-3.382663801E-2
2.177801293E1,-2.367101051E-2,3.937787116E-1,3.476584256E-1
2.179747366E1,2.214384824E-1,5.006800294E-1,6.474403143E-1
2.181693428E1,-1.463021189E-1,1.028925419E0,5.122864842E-1
2.183639491E1,-5.656607747E-1,1.456683397E0,2.114355713E-1
2.185585553E1,-5.520690680E-1,1.130328894E0,2.343430072E-1
2.187531616E1,-1.690568328E-1,1.072831303E-1,4.110356271E-1
2.189477678E1,4.612028971E-2,6.253728271E-2,4.951822758E-1
2.191423741E1,-1.017089859E-1,3.882809281E-1,3.551415205E-1
2.193369803E1,-3.055851161E-1,3.253618479E-1,8.620829135E-2
2.195315866E1,-2.901607752E-1,1.608865112E-1,-6.162098423E-2
2.197261928E1,-5.635227636E-2,2.649625950E-2,-1.184314117E-1
2.199207991E1,1.965457499E-1,7.338013500E-2,-1.227074638E-1
2.201154064E1,3.616319597E-1,2.425896823E-1,-8.681915700E-2
2.203100126E1,4.074468017E-1,5.070941448E-1,-1.086575761E-1
2.205046189E1,2.678641975E-1,5.871174335E-1,-1.834885031E-1
2.206992251E1,1.802051067E-2,3.041343093E-1,-1.960112303E-1
2.208938314E1,-1.375972927E-1,1.733328775E-2,-1.092684343E-1
2.210884376E1,-2.687804997E-1,-6.818778068E-2,3.817904799E-4
2.212830439E1,-5.170970559E-1,-1.702021956E-1,1.031597927E-1
2.214776501E1,-1.180038095E0,-9.815833569E-1,3.100902438E-1
2.216722574E1,-6.797397733E-1,-2.433761597E0,3.478111327E-1
2.218668637E1,-5.105302334E-1,2.562654018E0,4.675406218E-1
2.220614699E1,-1.682932526E-1,2.913137674E0,7.826705277E-2
2.222560762E1,3.524689674E-1,1.394680619E0,-1.879172772E-1
2.224506835E1,7.024945021E-1,-2.865719497E-1,9.659299254E-2
2.226452897E1,7.090612650E-1,-4.592939615E-1,1.579848975E-1
2.228398960E1,5.955931544E-1,5.291616172E-2,7.475458086E-2
2.230345022E1,4.444041252E-1,1.775325835E-1,7.933606207E-2
2.232291085E1,3.381136656E-1,2.573267929E-2,2.603811212E-2
2.234237147E1,2.287688553E-1,6.314814836E-2,-8.361211419E-2
2.236183210E1,1.530216336E-1,5.459604040E-2,-1.990655661E-1
2.238129272E1,9.254601598E-2,7.536543906E-2,-2.813795805E-1
2.240075345E1,5.742128938E-2,1.132390574E-1,-3.522399068E-1
2.242021408E1,4.520399496E-2,8.773545176E-2,-3.989710510E-1
2.243967470E1,1.847865991E-2,-5.268708803E-3,-4.275289774E-1
2.245913533E1,7.773254067E-2,-1.208748668E-1,-4.165334105E-1
2.247859595E1,2.582430840E-1,-1.563050300E-1,-3.178787529E-1
2.249805658E1,4.225656986E-1,-2.560287118E-1,-1.744782478E-1
2.251751720E1,3.394880891E-1,-5.049561262E-1,-1.376736462E-1
2.253697782E1,1.618791744E-2,-7.334195375E-1,-1.379790753E-1
2.255643845E1,-3.562868834E-1,-8.865938783E-1,-2.894735336E-1
2.257589918E1,8.185587823E-2,-1.195691466E0,-3.585012555E-1
2.259535980E1,7.147117853E-1,-1.484172344E0,-3.241401315E-1
2.261482043E1,4.615083337E-1,-2.320446253E0,-5.581776798E-2
2.263428105E1,3.428478539E-1,1.767689884E-1,-3.326922357E-1
2.265374168E1,2.661843300E-1,1.000825524E0,-3.452149630E-1
2.267320241E1,-6.322450191E-2,8.544471115E-2,-7.292198390E-2
2.269266303E1,-6.475166976E-2,-5.345830321E-1,3.792706728E-1
2.271212366E1,-3.066541255E-1,-1.077412739E-1,5.327504277E-1
2.273158428E1,-6.452259421E-1,6.289616227E-1,3.727038801E-1
2.275104491E1,-3.449858725E-1,1.082070589E0,2.792415619E-1
2.277050553E1,3.558287323E-1,9.498183727E-1,3.424660563E-1
2.278996626E1,7.582359314E-1,1.963166744E-1,3.267363012E-1
2.280942689E1,5.505418777E-1,4.159225523E-1,2.787834108E-1
2.282888751E1,-4.337139800E-2,5.171734095E-1,1.848629564E-1
2.284834814E1,-3.478874862E-1,2.844339013E-1,1.573740393E-1
2.286780876E1,-8.628465235E-2,7.750347257E-2,9.308052063E-2
2.288726939E1,3.897317350E-1,-2.863428742E-2,1.626427472E-2
2.290673001E1,6.583595276E-1,2.160934173E-2,-2.481638081E-2
2.292619064E1,6.255255342E-1,1.833357960E-1,-2.466366626E-2
2.294565137E1,3.248273432E-1,3.690386713E-1,-1.550069358E-2
2.296511199E1,-1.959348768E-1,3.612501621E-1,-1.908952487E-3
2.298457262E1,-6.644681692E-1,2.222020552E-2,1.010217592E-1
2.300403324E1,-6.962331533E-1,-5.454258919E-1,3.352884054E-1
2.302349387E1,-4.101957083E-1,-1.336495757E0,4.657080472E-1
2.304295460E1,1.206457894E-2,-2.693989992E0,7.494547367E-1
2.306241522E1,2.991710305E-1,-4.894553870E-2,3.824777007E-1
2.308187585E1,4.283689260E-1,1.743026257E0,1.488219351E-1
2.310133647E1,7.909171581E-1,1.301371098E0,1.098793000E-1
2.312079710E1,1.281594276E0,3.023017049E-1,2.201403975E-1
2.314025783E1,1.440266490E0,-1.323285848E-1,3.099375069E-1
2.315971845E1,1.087797403E0,7.994692773E-2,1.877645552E-1
2.317917908E1,6.608029604E-1,4.628064334E-1,6.879864633E-2
2.319863970E1,4.621191919E-1,4.718166888E-1,4.069886729E-2
2.321810032E1,3.260490894E-1,3.305542171E-1,-7.597630471E-2
2.323756095E1,-2.260199748E-2,3.207803667E-1,-2.522107959E-1
2.325702158E1,-3.462076187E-1,2.871828079E-1,-3.375791609E-1
2.327648230E1,-4.721984863E-1,9.750928730E-2,-3.100902438E-1
2.329594293E1,-5.158752799E-1,-3.107774630E-2,-2.983310819E-1
2.331540355E1,-5.542070866E-1,2.374736778E-2,-2.964984775E-1
2.333486418E1,-5.574141145E-1,3.321577236E-2,-3.102429509E-1
2.335432480E1,-5.013672709E-1,-4.879282415E-2,-2.810741663E-1
2.337378543E1,-4.836521745E-1,-2.348011434E-1,-1.938732117E-1
2.339324605E1,-4.715875983E-1,-4.759400189E-1,-8.727730811E-2
2.341270678E1,-4.667007029E-1,-8.209258914E-1,-6.643154658E-3
2.343216741E1,-4.671588540E-1,-1.168966055E0,1.748600416E-2
2.345162803E1,-6.470585465E-1,-1.100243807E0,-5.703949928E-2
2.347108866E1,-6.363683939E-1,-9.038507938E-1,-1.398116797E-1
2.349054928E1,-3.990474045E-1,-6.007091403E-1,-1.269835234E-1
2.351000991E1,-2.791652083E-1,-1.009683132E0,-4.528035223E-2
2.352947064E1,1.250745654E-1,5.695550442E-1,-3.117701113E-1
2.354893126E1,-1.637117565E-1,1.097494960E0,-1.005636156E-1
2.356839189E1,2.474002354E-2,5.573377609E-1,1.411861181E-1
2.358785251E1,3.332267404E-1,3.276526034E-1,4.253909588E-1
2.360731314E1,1.580612659E-1,5.214494467E-1,5.466476083E-1
2.362677387E1,-2.240346521E-1,8.134428263E-1,3.010799885E-1
2.364623449E1,-5.517635942E-1,7.949641347E-1,1.537088454E-1
2.366569512E1,-4.010327160E-1,5.291616172E-2,1.508072466E-1
2.368515574E1,1.093447953E-1,-6.117047071E-1,1.737146676E-1
2.370461637E1,2.620609999E-1,-1.022434905E-1,1.611919403E-1
2.372407699E1,-3.420842811E-2,5.658135191E-2,-9.277509153E-2
2.374353772E1,-2.854265571E-1,-1.114064679E-1,-2.998582423E-1
2.376299835E1,-3.640754223E-1,-3.397171795E-1,-2.940550447E-1
2.378245897E1,-1.905898154E-1,-5.191587210E-1,-2.044106275E-1
2.380191960E1,1.123991162E-1,-4.965566993E-1,-9.231694043E-2
2.382138022E1,2.640463114E-1,-1.740200967E-1,-1.091920771E-2
2.384084085E1,1.464548260E-1,1.976911128E-1,-3.520108387E-2
2.386030147E1,-1.840230078E-1,3.794233799E-1,-1.558468789E-1
2.387976220E1,-4.615083337E-1,3.780489266E-1,-1.494327933E-1
2.389922283E1,-6.013963819E-1,2.622900605E-1,-3.764454275E-2
2.391868345E1,-6.107120514E-1,-4.253146052E-2,-2.390008420E-2
2.393814408E1,-3.978256881E-1,-7.609084249E-1,5.001455545E-2
2.395760470E1,-3.975202441E-1,-1.738444805E0,2.141844630E-1
2.397706543E1,-2.758054435E-1,-3.449171543E0,4.452440739E-1
2.399652605E1,1.412624866E-1,-6.004037261E-1,-2.958876193E-1
2.401598668E1,3.237583488E-2,1.244560599E0,-4.197404683E-1
2.403544730E1,3.533852696E-1,9.672279954E-1,-1.244636998E-2
2.405490803E1,7.131846547E-1,-2.390008420E-2,2.274707705E-1
2.407436866E1,7.422007322E-1,-2.457967103E-1,4.026362598E-1
2.409382928E1,3.955349326E-1,7.322741300E-2,2.422842383E-1
2.411328991E1,-7.009673119E-2,6.011673212E-1,-1.076649129E-2
2.413275053E1,-5.229002237E-1,7.967967391E-1,-6.360629201E-2
2.415221116E1,-6.646208763E-1,3.381900191E-1,-6.207913160E-2
2.417167189E1,-4.996874034E-1,-9.491311759E-2,-5.062541738E-2
2.419113251E1,-4.405862093E-1,-1.850156635E-1,-6.910407543E-2
2.421059314E1,-5.390881896E-1,-1.308014244E-1,-1.156825200E-1
2.423005376E1,-6.189587116E-1,-2.112828493E-1,-1.184314117E-1
2.424951439E1,-5.604684353E-1,-3.021489978E-1,-1.188895553E-1
2.426897501E1,-4.147771895E-1,-3.212385178E-1,-1.156825200E-1
2.428843574E1,-2.031125426E-1,-2.958876193E-1,-1.068249792E-1
2.430789637E1,6.459894776E-2,-2.554178238E-1,-1.048396677E-1
2.432735699E1,2.678641975E-1,-1.569158882E-1,-1.763108522E-1
2.434681762E1,4.207331240E-1,-2.386190593E-1,-2.916115820E-1
2.436627824E1,6.000219584E-1,-5.414552689E-1,-3.194059134E-1
2.438573887E1,5.593994260E-1,-4.229474962E-1,-2.369391769E-1
2.440519960E1,-1.965457499E-1,-7.538834810E-1,-3.195586503E-1
2.442466022E1,-2.160934210E-1,-1.803807378E0,2.422842383E-1
2.444412085E1,-1.689041108E-1,1.836335897E0,-2.989419401E-1
2.446358147E1,-1.985310465E-1,2.022191525E0,-2.995528281E-1
2.448304220E1,1.446222365E-1,1.104061723E0,2.352592945E-1
2.450250282E1,1.056796089E-1,2.031888962E-1,8.397099972E-1
2.452196345E1,-2.700022459E-1,2.974147797E-1,6.007091403E-1
2.454142408E1,-4.798342884E-1,9.293544292E-1,6.757691503E-2
2.456088480E1,-2.551887631E-1,1.252654552E0,-9.124792367E-2
2.458034543E1,1.858556122E-1,8.982002735E-1,-5.138900131E-2
2.459980605E1,5.685623884E-1,3.720930219E-1,3.061959706E-2
2.461926668E1,6.563742161E-1,5.416079760E-1,1.485165060E-1
2.463872730E1,5.438223481E-1,4.777726233E-1,7.948877662E-2
2.465818793E1,4.027126133E-1,2.354120165E-1,-3.871355578E-2
2.467764866E1,3.636172712E-1,-1.947131567E-2,-1.263726503E-1
2.469710928E1,4.735729098E-1,-6.849320978E-2,-1.466839015E-1
2.471656991E1,4.948004782E-1,1.504254527E-2,-1.589011997E-1
2.473603053E1,3.382663727E-1,1.634826809E-1,-1.969275326E-1
2.475549116E1,6.108647794E-4,3.519344628E-1,-2.186132371E-1
2.477495178E1,-4.158461988E-1,3.589594066E-1,-1.387426704E-1
2.479441251E1,-7.087558508E-1,2.878700197E-2,7.101302966E-3
2.481387314E1,-6.879864335E-1,-3.963748813E-1,7.872519642E-2
2.483333376E1,-4.256200492E-1,-1.173700333E0,2.092975378E-1
2.485279439E1,9.162971377E-2,-3.086776018E0,1.010599375E0
2.487225512E1,3.882045746E-1,-2.720639110E-1,2.380081862E-1
2.489171574E1,6.583595276E-1,1.639484763E0,1.992946304E-2
2.491117637E1,8.761327863E-1,9.879974127E-1,-1.715766490E-1
2.493063710E1,1.050076604E0,-1.990655661E-1,4.955640435E-2
2.495009772E1,9.870047569E-1,-7.265473008E-1,3.195586503E-1
2.496955835E1,5.749764442E-1,-2.590830326E-1,1.434768587E-1
2.498901897E1,2.391535640E-1,3.036761582E-1,1.290451828E-2
2.500847960E1,2.115119249E-1,2.633590698E-1,5.597048625E-2
2.502794033E1,3.706422150E-1,1.756999791E-1,4.329504073E-2
2.504740095E1,3.396408260E-1,3.009272516E-1,-7.139482349E-2
2.506686158E1,1.805105358E-1,3.936260045E-1,-2.173915058E-1
2.508632220E1,-3.344484791E-2,3.229183853E-1,-2.813795805E-1
2.510578283E1,-2.518289983E-1,1.162933856E-1,-2.796997130E-1
2.512524355E1,-4.268417656E-1,-5.535962060E-2,-2.994000912E-1
2.514470418E1,-5.445859432E-1,-1.379790753E-1,-3.282634616E-1
2.516416480E1,-6.209440231E-1,-1.766162813E-1,-2.981783748E-1
2.518362543E1,-6.356047988E-1,-1.442404389E-1,-2.152534723E-1
2.520308605E1,-5.818486810E-1,-6.268999726E-2,-7.353284955E-2
2.522254678E1,-4.268417656E-1,-2.129627317E-1,9.735657275E-2
2.524200741E1,-2.405280024E-1,-5.272526741E-1,1.732565165E-1
2.526146803E1,-2.622137070E-1,-7.636573315E-1,1.359937787E-1
2.528092866E1,-1.663079411E-1,-8.458186388E-1,5.642863363E-2
2.530038928E1,2.454149276E-1,-9.372956753E-1,2.573267929E-2
2.531985001E1,-1.027780026E-1,-1.236924767E0,-6.925679743E-2
2.533930931E1,-4.598284662E-1,-3.432296515E-1,-9.552398324E-2
2.535876994E1,-8.396336436E-1,1.432248831E0,-2.650389671E-1
2.537823067E1,-5.991056561E-1,9.411135316E-1,-6.803506613E-2
2.539769129E1,4.312705398E-1,-7.093667239E-2,2.994000912E-1
2.541715192E1,1.013730049E0,-7.521272451E-2,6.220894456E-1
2.543661254E1,8.254310489E-1,4.334849119E-1,6.520217657E-1
2.545607317E1,4.065304995E-1,8.369610906E-1,2.929860055E-1
2.547553390E1,6.444623321E-2,7.236456871E-1,1.508072466E-1
2.549499452E1,-4.886918142E-2,1.020907760E-1,2.344957143E-1
2.551445515E1,9.911280870E-2,-3.765217662E-1,3.646099269E-1
2.553391577E1,6.536252797E-2,-1.882227063E-1,3.410916328E-1
2.555337650E1,-2.945895493E-1,-1.807396114E-1,8.758273721E-2
2.557283713E1,-6.009382010E-1,-3.537670672E-1,-8.727730811E-2
2.559229775E1,-6.093376279E-1,-5.222130418E-1,-1.237764731E-1
2.561175838E1,-3.573558927E-1,-5.565741658E-1,-5.062541738E-2
2.563121900E1,-1.740964688E-2,-4.327213466E-1,6.635518372E-2
2.565067973E1,2.455676347E-1,-1.179732606E-1,1.627191007E-1
2.567014036E1,3.023780584E-1,1.773798615E-1,1.680641770E-1
2.568960098E1,2.475529462E-1,3.082576394E-1,1.236237586E-1
2.570906161E1,1.024725661E-1,3.626246154E-1,1.352301836E-1
2.572852223E1,-7.544180006E-2,3.343721032E-1,1.253036410E-1
2.574798296E1,-3.278816640E-1,-4.360047355E-2,8.055779338E-2
2.576744358E1,-7.773254514E-1,-9.258419275E-1,-6.895136088E-2
2.578690421E1,-1.335044980E0,-2.078238249E0,-1.193477064E-1
2.580636494E1,-1.072525859E0,-3.292026758E0,-6.940951198E-2
2.582582556E1,3.652971387E-1,6.208676696E-1,-7.946587205E-1
2.584528619E1,1.434005022E0,2.206825256E0,-3.826304376E-1
2.586474692E1,1.265864491E0,1.224249363E0,-9.086613543E-3
2.588420754E1,5.708531141E-1,2.470184416E-1,4.741837829E-2
2.590366817E1,1.102610901E-1,1.434768587E-1,1.051450968E-1
2.592312879E1,-3.130681813E-2,3.455203772E-1,-8.849903196E-2
2.594258952E1,1.629481763E-1,5.251146555E-1,-1.564577371E-1
2.596205015E1,3.628536761E-1,5.119810700E-1,-8.559742570E-2
2.598151077E1,3.853029609E-1,3.334558010E-1,-4.986183718E-2
2.600097140E1,2.483165264E-1,3.038288653E-1,-4.161516204E-2
2.602043213E1,1.603520103E-2,4.194350243E-1,-6.162098423E-2
2.603989275E1,-7.528908551E-2,4.678460658E-1,-1.103374511E-1
2.605935338E1,-1.191186346E-2,2.725220621E-1,-1.337030232E-1
2.607881400E1,1.033888608E-1,-9.926552884E-4,-1.714239269E-1
2.609827473E1,2.163988501E-1,-1.717293561E-1,-2.129627317E-1
2.611773536E1,2.886336148E-1,-3.383427262E-1,-2.260963321E-1
2.613719598E1,3.123046160E-1,-4.198931754E-1,-2.060905099E-1
2.615665661E1,2.302960157E-1,-4.143953919E-1,-1.975383908E-1
2.617611723E1,7.620538026E-2,-5.477166176E-1,-1.818086356E-1
2.619557796E1,-6.719512399E-3,-8.003092408E-1,-1.682168841E-1
2.621503858E1,1.461493969E-1,-8.572723866E-1,-8.910989761E-2
2.623449921E1,4.169152081E-1,-5.035816431E-1,3.000873141E-2
2.625395994E1,1.640172005E-1,-1.645746112E0,3.963748813E-1
2.627342056E1,-3.914116025E-1,-2.939023077E-1,1.769217104E-1
2.629288119E1,-1.154687166E0,1.473634958E0,-2.172387838E-1
2.631234181E1,-1.437059402E0,6.856193542E-1,-1.370627880E-1
2.633180254E1,-5.502364635E-1,-7.429642975E-2,5.816196203E-1
2.635126317E1,-3.909534588E-2,-1.100320220E-1,9.229403138E-1
2.637072379E1,-2.499964088E-1,1.990655661E-1,5.942950845E-1
2.639018452E1,-3.538434207E-1,6.802743077E-1,3.962985426E-2
2.640964515E1,-1.177441850E-1,8.313106298E-1,-1.289688200E-1
2.642910577E1,4.214966893E-1,9.857830405E-2,-9.674570709E-2
2.644856640E1,9.416480660E-1,-7.224239707E-1,-1.351538301E-2
2.646802713E1,8.545998335E-1,-1.404225379E-1,4.619665071E-2
2.648748775E1,3.995055556E-1,2.170860767E-1,-1.129336283E-1
2.650694838E1,1.079703495E-1,4.314232618E-2,-1.972329617E-1
2.652640900E1,5.849030241E-2,-2.309832424E-1,-1.463784724E-1
2.654586973E1,9.376774728E-2,-3.082576394E-1,-3.978256881E-2
2.656533036E1,2.168569900E-2,-1.772271395E-1,6.131555140E-2
2.658479098E1,-1.311832070E-1,8.437569439E-2,7.948877662E-2
2.660425160E1,-2.568686306E-1,2.905425727E-1,5.749764666E-2
2.662371223E1,-3.918697536E-1,2.775616944E-1,2.664897591E-2
2.664317296E1,-6.006327868E-1,8.910989761E-2,3.504836559E-2
2.666263358E1,-8.298597932E-1,-7.124974132E-1,1.590539217E-1
2.668209421E1,-8.649845123E-1,-2.055025578E0,6.681333482E-2
2.670155494E1,-9.173662066E-1,-3.091204882E0,-4.237874225E-2
2.672101556E1,-9.926552325E-2,-2.874882221E-1,1.089630052E-1
2.674047619E1,8.200859427E-1,2.000353098E0,1.244636998E-2
2.675993692E1,9.388991594E-1,1.414075613E0,9.140064567E-2
2.677939754E1,7.985529900E-1,4.562396407E-1,3.029125631E-1
2.679885817E1,6.430879235E-1,2.641226649E-1,2.882518172E-1
2.681831890E1,4.300487936E-1,4.512000084E-1,1.196531355E-1
2.683777952E1,3.915643096E-1,7.917571068E-1,-6.162098423E-2
2.685724015E1,4.315759540E-1,8.105412126E-1,-1.592066288E-1
2.687670077E1,3.310887218E-1,2.271653414E-1,-2.306778133E-1
2.689616150E1,1.168278903E-1,-4.543306679E-2,-1.853211075E-1
2.691562213E1,-1.017089859E-1,2.526689470E-1,-1.312595755E-1
2.693508275E1,-1.632536054E-1,3.951531649E-1,-7.307469845E-2
2.695454338E1,-2.550360374E-2,2.409097999E-1,-3.741546767E-3
2.697400411E1,1.424842030E-1,1.908952487E-3,1.870773360E-2
2.699346473E1,2.286161482E-1,-7.170025259E-2,4.115701467E-2
2.701292536E1,1.956294477E-1,-1.081994250E-1,5.459604040E-2
2.703238598E1,4.382954910E-2,-1.326340139E-1,4.100430012E-2
2.705184671E1,-1.534797698E-1,-5.215258151E-2,8.933897130E-3
2.707130733E1,-2.545779049E-1,1.265253723E-1,-3.123046272E-2
2.709076796E1,-2.467893660E-1,1.775325835E-1,-3.260490671E-2
2.711022869E1,-2.872591615E-1,-1.126281917E-1,-1.472947747E-1
2.712968931E1,-3.121519089E-1,-5.110647678E-1,-3.568213880E-1
2.714914994E1,3.848448023E-2,-7.262418866E-1,-3.006218374E-1
2.716861056E1,2.260199636E-1,-7.856484652E-1,-9.980003536E-2
2.718807129E1,-3.908007443E-1,-1.169424295E0,3.969857395E-1
2.720753192E1,-6.666061878E-1,5.169443041E-2,4.069886729E-2
2.722699265E1,-4.019490182E-1,1.052749038E0,-2.523635030E-1
2.724645327E1,1.313359290E-1,8.189405799E-1,-3.596466407E-2
2.726591390E1,2.186895907E-1,2.975675166E-1,5.455785990E-1
2.728537452E1,-4.271472096E-1,3.278053105E-1,8.901063204E-1
2.730483525E1,-9.082031846E-1,7.819832563E-1,5.200750232E-1
2.732429588E1,-8.710931540E-1,1.058552265E0,1.436295807E-1
2.734375650E1,-4.547888339E-1,7.242565751E-1,3.550651670E-2
2.736321723E1,3.222311661E-2,-1.815031916E-1,-3.588830587E-3
2.738267786E1,4.298960865E-1,-7.604503036E-1,3.123046272E-2
2.740213848E1,5.048797131E-1,-4.869355857E-1,4.329504073E-2
2.742159911E1,3.011563420E-1,-1.986074150E-1,-3.382663801E-2
2.744105983E1,1.893680841E-1,-1.836412251E-1,-1.234710440E-1
2.746052046E1,2.444986254E-1,-3.586539924E-1,-1.424078494E-1
2.747998108E1,4.179842174E-1,-4.285979867E-1,-1.483637840E-1
2.749944171E1,5.485565662E-1,-2.435059696E-1,-1.535561383E-1
2.751890244E1,4.978547990E-1,6.986765563E-2,-1.914297491E-1
2.753836306E1,2.486219704E-1,3.812559843E-1,-3.059668839E-1
2.755782369E1,-1.631008983E-1,4.910589159E-1,-4.153116941E-1
2.757728442E1,-6.082686186E-1,5.032762289E-1,-4.198931754E-1
2.759674504E1,-9.521854520E-1,3.581958413E-1,-3.401753306E-1
2.761620567E1,-1.100320220E0,-8.933897130E-3,-2.239582986E-1
2.763566640E1,-9.720385671E-1,-7.008909583E-1,-6.986765563E-2
2.765512702E1,-5.879573226E-1,-1.882150769E0,3.435350657E-1
2.767458765E1,3.439168632E-1,-1.788688421E0,6.178133488E-1
2.769404838E1,5.482511520E-1,1.306716084E0,-4.238637984E-1
2.771350900E1,6.133082509E-1,1.458057880E0,-4.757873118E-1
2.773296973E1,7.490729094E-1,6.905062795E-1,-1.372154951E-1
2.775243036E1,1.090546370E0,2.800051570E-1,2.044106275E-1
2.777189098E1,1.091462612E0,3.048978746E-1,3.204749227E-1
2.779135171E1,8.640682101E-1,6.365974545E-1,1.309541315E-1
2.781081233E1,6.745474339E-1,9.824996591E-1,-1.488982886E-2
2.783027296E1,3.908007443E-1,8.016836643E-1,-7.536543906E-2
2.784973369E1,1.090393662E-1,1.291215420E-1,-1.347720474E-1
2.786919431E1,9.162971983E-4,-8.559742570E-2,-6.360629201E-2
2.788865494E1,2.183841541E-2,-2.160934173E-2,1.244636998E-2
2.790811567E1,1.482874304E-1,-4.573849961E-2,2.588539571E-2
2.792757629E1,2.533561587E-1,-1.593593508E-1,-3.535379842E-2
2.794703692E1,2.348775119E-1,-1.756999791E-1,-1.068249792E-1
2.796649754E1,1.192713454E-1,-1.688277572E-1,-1.805869043E-1
2.798595827E1,-1.267544460E-2,-2.709949017E-1,-2.729802132E-1
2.800541890E1,-1.067486182E-1,-4.130209386E-1,-3.438405097E-1
2.802487952E1,-2.470948100E-1,-3.963748813E-1,-3.838521540E-1
2.804434025E1,-4.807505906E-1,-3.229183853E-1,-3.560578227E-1
2.806380088E1,-6.404917240E-1,-3.595702946E-1,-2.706894577E-1
2.808326150E1,-4.589121640E-1,-5.264890790E-1,-2.923751473E-1
2.810272223E1,3.231474757E-1,-4.348593652E-1,-3.510181606E-1
2.812218286E1,1.364671946E0,-9.491311759E-2,-7.821359634E-1
2.814164348E1,1.488677502E0,-1.693088055E0,1.278998107E-1
2.816110421E1,5.575668216E-1,5.727620721E-1,-1.669951528E-1
2.818056483E1,-5.280926228E-1,1.151556492E0,-7.140245438E-1
2.820002556E1,-2.076940238E-2,7.882446647E-1,-4.310414493E-1
2.821948619E1,4.792234302E-1,-3.459021822E-2,6.880627871E-1
2.823894681E1,4.037816226E-1,-1.458439697E-2,1.059774041E0
2.825840754E1,-6.475166976E-2,4.090503156E-1,7.473167181E-1
2.827786817E1,-7.464767694E-1,7.036398649E-1,3.103956580E-1
2.829732879E1,-1.121394992E0,8.580359221E-1,1.106428802E-1
2.831678952E1,-9.822705388E-1,2.126573026E-1,1.161406636E-1
2.833625015E1,-5.855138898E-1,-1.634826809E-1,3.355938494E-1
2.835571077E1,-6.311760545E-1,3.352884054E-1,3.442986608E-1
2.837517150E1,-8.642209172E-1,3.588066995E-1,1.563050300E-1
2.839463213E1,-9.306524992E-1,-1.871536970E-1,3.856083751E-2
2.841409275E1,-7.632755637E-1,-6.220894456E-1,8.933897130E-3
2.843355348E1,-4.770853817E-1,-7.201332450E-1,8.529199660E-2
2.845301410E1,-2.000582218E-1,-5.822305083E-1,1.891390085E-1
2.847247473E1,-2.794706449E-2,-4.310414493E-1,2.512944937E-1
2.849193536E1,-8.857539296E-2,-1.300378442E-1,2.598465979E-1
2.851139608E1,-3.808741868E-1,1.311068535E-1,1.433241516E-1
2.853085671E1,-5.971203446E-1,7.170025259E-2,-5.123628303E-2
2.855031744E1,-7.002037764E-1,-7.155517340E-1,-2.659552395E-1
2.856977806E1,-5.024362803E-1,-2.225762129E0,-3.137554228E-1
2.858923869E1,-4.211912751E-1,-3.055163860E0,4.130209386E-1
2.860869942E1,2.423606068E-1,4.628064334E-1,3.203222156E-1
2.862816004E1,8.315396905E-1,1.834961414E0,1.358410567E-1
2.864762077E1,1.056337953E0,1.138117433E0,-4.344775900E-2
2.866708140E1,1.126892805E0,5.078576803E-1,9.063705802E-2
2.868654202E1,9.642500281E-1,3.832412958E-1,1.450040340E-1
2.870600275E1,4.477638900E-1,3.925569654E-1,1.901316643E-2
2.872546338E1,1.547015011E-1,6.413316727E-1,-7.108938694E-2
2.874492400E1,2.422078848E-1,6.701950431E-1,-4.344775900E-2
2.876438473E1,3.388772309E-1,3.930151165E-1,-6.055197120E-2
2.878384536E1,2.376264036E-1,4.595993757E-1,-1.569158882E-1
2.880330598E1,4.169152305E-2,5.373319387E-1,-2.328158319E-1
2.882276671E1,-1.252272818E-2,3.685805500E-1,-2.856556475E-1
2.884222733E1,1.159115955E-1,5.352702737E-2,-2.859610617E-1
2.886168796E1,2.854265571E-1,-1.656207144E-1,-2.195295244E-1
2.888114869E1,3.573558927E-1,-2.300669402E-1,-1.865428388E-1
2.890060931E1,1.982256174E-1,-3.488801420E-1,-2.329685539E-1
2.892006994E1,-2.941313982E-1,-5.338194370E-1,-3.035234511E-1
2.893953067E1,-1.026558280E0,-6.448441148E-1,-2.969566286E-1
2.895899129E1,-1.478598237E0,-6.705004573E-1,-2.664133906E-1
2.897845192E1,-1.390480995E0,-4.973202944E-1,-3.163515925E-1
2.899791265E1,-1.029612541E0,-4.910589159E-1,-3.537670672E-1
2.901737327E1,-4.360047281E-1,-7.149408460E-1,-1.630245447E-1
2.903683390E1,1.172860414E-1,-8.696423769E-1,9.735657275E-2
2.905629463E1,-1.053741723E-1,-1.434692264E0,5.590176582E-1
2.907575525E1,4.917461425E-2,-5.382482409E-1,3.617083132E-1
2.909521598E1,-2.655734718E-1,1.091539025E0,-2.494619042E-1
2.911467661E1,-6.047561169E-1,4.261545539E-1,-1.376736462E-1
2.913413723E1,6.734783947E-2,-2.720639110E-1,1.673005968E-1
2.915359796E1,4.781544209E-1,7.506000996E-2,5.684860349E-1
2.917305858E1,8.613193035E-2,5.399280787E-1,6.877573729E-1
2.919251931E1,-1.108719558E-1,8.636864424E-1,2.635118067E-1
2.921197994E1,6.551524997E-2,7.926734090E-1,1.244636998E-2
2.923144056E1,4.077522457E-1,3.814086914E-1,3.993528336E-2
2.925090129E1,6.945532560E-1,-6.559160352E-2,1.547778696E-1
2.927036192E1,6.033816934E-1,2.176205814E-2,2.761872411E-1
2.928982254E1,3.849975169E-1,4.909062088E-1,2.942077518E-1
2.930928327E1,2.614501119E-1,5.442041755E-1,2.018144578E-1
2.932874390E1,2.127336562E-1,2.123518735E-1,9.216422588E-2
2.934820452E1,2.304487377E-1,-2.355647236E-1,4.344775900E-2
2.936766525E1,2.629773021E-1,-4.104247689E-1,3.443750367E-2
2.938712588E1,2.582430840E-1,-2.425896823E-1,1.443168055E-2
2.940658660E1,2.321286201E-1,1.056032479E-1,-5.887209252E-2
2.942604723E1,1.096502244E-1,4.066068828E-1,-1.937204897E-1
2.944550786E1,-1.406516135E-1,5.469530225E-1,-3.019962609E-1
2.946496858E1,-3.158170879E-1,4.997637570E-1,-2.858083546E-1
2.948442921E1,-3.674351573E-1,2.630536556E-1,-1.921933293E-1
2.950388983E1,-3.391826749E-1,-3.016908467E-1,-5.245801434E-2
2.952335056E1,-3.654498458E-1,-1.200425625E0,1.414915472E-1
2.954281119E1,-8.651372194E-1,-2.389015913E0,4.967094362E-1
2.956227192E1,-5.820014477E-1,-2.319071770E0,2.856556475E-1
2.958173254E1,-1.904370934E-1,1.009530425E0,-9.949459881E-2
2.960119327E1,2.304487377E-1,1.507385254E0,-7.017309219E-2
2.962065390E1,6.354520917E-1,7.564796805E-1,1.229365356E-2
2.964011463E1,9.514219165E-1,-1.385899484E-1,1.610392332E-1
2.965957525E1,9.291253090E-1,-2.401462197E-1,1.631772518E-1
2.967903588E1,6.914989352E-1,1.828776449E-1,-3.443750367E-2
2.969849661E1,3.671297431E-1,5.348884463E-1,-1.132390574E-1
2.971795723E1,8.246674389E-2,5.555051565E-1,-1.399643868E-1
2.973741786E1,-8.567378670E-2,4.053851366E-1,-1.208748668E-1
2.975687858E1,-1.568395346E-1,3.615556061E-1,-5.703949928E-2
2.977633921E1,-1.983783394E-1,2.767980993E-1,-8.544471115E-2
2.979579994E1,-1.713475734E-1,1.416442692E-1,-1.017853469E-1
2.981526056E1,-9.315688163E-2,-2.939786762E-2,-1.210275814E-1
2.983472119E1,-1.817322709E-2,-1.970802546E-1,-1.666897237E-1
2.985418192E1,-7.330377586E-3,-3.204749227E-1,-2.531270981E-1
2.987364254E1,-1.878409274E-2,-4.172970057E-1,-3.346775472E-1
2.989310317E1,-8.597921580E-2,-4.040106833E-1,-3.375791609E-1
2.991256390E1,-2.930623889E-1,-3.032180071E-1,-3.050506115E-1
2.993202452E1,-3.717112243E-1,-3.351356983E-1,-2.810741663E-1
2.995148525E1,-3.541488647E-1,-3.523926139E-1,-3.111592531E-1
2.997094588E1,-3.824013472E-1,-3.459785283E-1,-4.777726233E-1
2.999040650E1,-4.856374860E-1,-3.114646673E-1,-6.970730424E-1
3.000986723E1,-5.849030018E-1,-1.908723354E0,-3.030653000E-1
3.002932786E1,-4.387536347E-1,-5.663480163E-1,3.543779254E-1
3.004878858E1,-1.188590169E0,1.652923703E0,-1.165988147E-1
3.006824921E1,-9.541707635E-1,1.354363561E0,-2.008217946E-2
3.008770994E1,-2.023489624E-1,6.895136088E-2,7.538834810E-1
3.010717056E1,-2.028071135E-1,-1.870009750E-1,1.086499333E0
3.012663129E1,-4.378373325E-1,3.963748813E-1,7.914516926E-1
3.014609192E1,-3.310887218E-1,1.125594735E0,5.503128171E-1
3.016555254E1,1.085812151E-1,1.378950834E0,4.163807034E-1
3.018501327E1,4.992292523E-1,7.719039917E-1,2.958876193E-1
3.020447390E1,4.864010811E-1,-2.955058403E-2,1.071304083E-1
3.022393463E1,1.169806048E-1,8.880446851E-2,-2.680169232E-2
3.024339525E1,-1.466075480E-1,-6.490438245E-3,-7.872519642E-2
3.026285588E1,-9.728021920E-2,-3.934732676E-1,-2.061668551E-3
3.028231661E1,9.804379940E-2,-7.224239707E-1,3.917170316E-2
3.030177723E1,2.994764447E-1,-7.112756968E-1,1.840230078E-2
3.032123786E1,4.486801922E-1,-4.087449014E-1,-2.313650399E-2
3.034069858E1,5.908589363E-1,-5.429060757E-2,-1.060613990E-1
3.036015921E1,6.957749724E-1,2.584721744E-1,-1.761581302E-1
3.037961994E1,6.601921320E-1,4.299724400E-1,-1.460730433E-1
3.039908056E1,3.672824502E-1,2.952767611E-1,2.832885459E-2
3.041854119E1,-1.437059343E-1,-1.491273642E-1,7.002037764E-2
3.043800192E1,-7.246383429E-1,-7.216603756E-1,-1.584430486E-1
3.045746254E1,-2.967275679E-1,-3.257054567E0,1.253036410E-1
3.047692327E1,6.834049821E-1,-3.039815724E-1,4.559341967E-1
3.049638390E1,9.450078011E-1,1.788077593E0,-8.009964228E-2
3.051584463E1,7.689260244E-1,1.445993304E0,-2.665661275E-1
3.053530525E1,5.911644101E-1,5.141190886E-1,-4.696023092E-2
3.055476598E1,5.545125008E-1,-1.456148922E-1,1.427132785E-1
3.057422661E1,4.851793647E-1,-5.879573524E-3,1.092684343E-1
3.059368723E1,4.272999167E-1,3.339139521E-1,2.527453005E-2
3.061314796E1,3.349066079E-1,2.063959390E-1,3.535379842E-2
3.063260858E1,2.345720828E-1,-2.496909723E-2,-3.031416424E-2
3.065206931E1,1.172860414E-1,1.877645552E-1,-1.308014244E-1
3.067152994E1,9.621120058E-3,1.650098413E-1,-2.065486610E-1
3.069099056E1,-6.505709887E-2,-2.802342176E-2,-2.236528695E-1
3.071045129E1,-1.634063274E-1,-1.373682171E-1,-2.296088040E-1
3.072991192E1,-2.634354234E-1,-1.421024203E-1,-2.390772104E-1
3.074937265E1,-2.935205400E-1,-6.757691503E-2,-2.138790339E-1
3.076883327E1,-2.671006322E-1,2.367100911E-3,-1.755472720E-1
3.078829390E1,-1.785252392E-1,6.039925665E-2,-1.498909444E-1
3.080775463E1,-5.146535859E-2,-2.909243479E-2,-1.555414498E-1
3.082721525E1,3.940077871E-2,-4.235583544E-1,-2.103665620E-1
3.084667588E1,1.754709035E-1,-8.803325295E-1,-2.474765927E-1
3.086613660E1,5.056433082E-1,-8.765146136E-1,-1.955530941E-1
3.088559723E1,8.903354406E-1,-9.214131832E-1,-8.575014025E-2
3.090505796E1,7.735075355E-1,-1.047098637E0,-1.566104591E-1
3.092451858E1,-1.314886510E-1,-1.118875146E0,1.135444939E-1
3.094397931E1,-5.050324798E-1,1.367191792E0,-1.245400533E-1
3.096343994E1,-5.416843295E-1,1.744248033E0,-1.885281354E-1
3.098290067E1,-2.050978541E-1,5.318341255E-1,4.161516204E-2
3.100236129E1,2.159406990E-1,-2.508363426E-1,4.501309991E-1
3.102182192E1,1.753181964E-1,5.230529606E-2,5.613083839E-1
3.104128265E1,-3.387245238E-1,3.749946058E-1,3.610974550E-1
3.106074327E1,-9.662353396E-1,5.438987017E-1,1.474474818E-1
3.108020400E1,-1.102305532E0,3.339139521E-1,1.242346242E-1
3.109966463E1,-8.129082918E-1,2.948186100E-1,1.401171088E-1
3.111912525E1,-8.509346247E-1,6.039161682E-1,-2.290742996E-4
3.113858598E1,-1.233030558E0,5.318341255E-1,-2.610683441E-1
3.115804661E1,-1.397658587E0,2.059377879E-1,-3.161988854E-1
3.117750733E1,-1.077565432E0,-2.543488145E-1,-2.592357397E-1
3.119696796E1,-4.841103256E-1,-3.694968224E-1,-1.027016416E-1
3.121642858E1,1.145371422E-2,-2.100611329E-1,4.619665071E-2
3.123588931E1,3.135263622E-1,4.925097153E-2,1.243873388E-1
3.125534994E1,5.203040838E-1,2.201403975E-1,1.648571342E-1
3.127481067E1,6.901245117E-1,3.198640645E-1,2.005927265E-1
3.129427129E1,7.003564835E-1,4.136318266E-1,1.436295807E-1
3.131373192E1,3.698786199E-1,3.320813775E-1,8.628465235E-3
3.133319265E1,-2.475529462E-1,-4.069886729E-2,-2.225838602E-1
3.135265327E1,-9.789108038E-1,-1.081459761E0,-4.757873118E-1
3.137211400E1,-6.157516837E-1,-3.267591953E0,1.469893306E-1
3.139157473E1,3.683514595E-1,-5.240456462E-1,3.417024910E-1
3.141103536E1,6.647735834E-1,2.047847748E0,2.496909723E-2
3.143049608E1,1.184314132E0,1.892535448E0,-1.802814752E-1
3.144995671E1,1.271820426E0,6.173552275E-1,6.772962958E-2
3.146941744E1,7.589994669E-1,1.412624773E-2,2.870301008E-1
3.148887806E1,1.018617004E-1,9.086613543E-3,1.941786408E-1
3.150833879E1,-2.953531146E-1,3.247509897E-1,1.257617921E-1
3.152779942E1,-3.271180987E-1,5.037343502E-1,3.336848691E-2
3.154726004E1,-2.646571696E-1,3.597230017E-1,-1.124754772E-1
3.156672077E1,-2.298378795E-1,1.155297980E-1,-2.309832424E-1
3.158618140E1,-2.765690386E-1,8.132137358E-2,-2.998582423E-1
3.160564213E1,-2.971857190E-1,1.794415340E-2,-3.856847584E-1
3.162510275E1,-2.941313982E-1,-2.338848561E-1,-4.734965563E-1
3.164456338E1,-2.909243405E-1,-3.583485484E-1,-4.886154532E-1
3.166402411E1,-1.921169758E-1,-1.857792437E-1,-5.325977206E-1
3.168348473E1,-8.888082206E-2,-5.490147322E-2,-6.286562085E-1
3.170294546E1,3.787361458E-2,-1.015562657E-2,-6.208676696E-1
3.172240608E1,2.249509543E-1,3.352120519E-2,-4.067595899E-1
3.174186681E1,4.908298552E-1,-3.184132650E-2,-1.020907760E-1
3.176132744E1,6.879864335E-1,-2.283870727E-1,8.040507883E-2
3.178078806E1,6.992874742E-1,-4.611265361E-1,4.344775900E-2
3.180024879E1,5.679515004E-1,-4.805215001E-1,-2.176205814E-2
3.181970942E1,1.847866029E-1,-3.322340846E-1,-1.744782478E-1
3.183917015E1,-7.684679031E-1,-1.975460291E0,1.999818534E-1
3.185863077E1,-1.306028843E0,-1.002047300E0,4.472293854E-1
3.187809150E1,-1.382387042E0,3.588066995E-1,3.283398226E-3
3.189755223E1,-5.245801210E-1,8.670461774E-1,2.863428742E-2
3.191701286E1,2.745837271E-1,3.633881807E-1,4.953349829E-1
3.193647358E1,3.582721949E-1,1.111010313E-1,7.618247271E-1
3.195593421E1,1.504254490E-1,4.209621847E-1,5.266417861E-1
3.197539494E1,2.504545636E-2,9.362266064E-1,2.105192691E-1
3.199485556E1,5.345067009E-3,9.638682604E-1,2.051742077E-1
3.201431619E1,1.328630894E-1,3.146717250E-1,3.374264240E-1
3.203377692E1,2.597702444E-1,-4.623482823E-1,4.056905806E-1
3.205323754E1,1.000291109E-1,-1.931859925E-2,3.079521954E-1
3.207269827E1,-1.391244531E-1,4.936550856E-1,1.057559624E-1
3.209215890E1,-1.146898642E-1,4.253909588E-1,9.239329956E-3
3.211161952E1,1.985310577E-2,6.116283685E-2,5.879573524E-3
3.213108025E1,1.721111536E-1,-1.758527011E-1,4.543306679E-2
3.215054088E1,2.383899838E-1,-1.382845193E-1,7.032580674E-2
3.217000160E1,2.260199636E-1,1.458439697E-2,3.581194952E-2
3.218946223E1,1.159115955E-1,1.190422773E-1,-5.673406646E-2
3.220892296E1,-9.193515033E-2,1.746309698E-1,-1.399643868E-1
3.222838358E1,-2.582430840E-1,1.015562657E-2,-1.778380126E-1
3.224784431E1,-5.138899684E-1,-4.621955752E-1,-2.308305353E-1
3.226730494E1,-8.721621633E-1,-1.193248034E0,-2.317468226E-1
3.228676567E1,-1.080619812E0,-2.871446371E0,4.638754427E-1
3.230622629E1,-2.040288299E-1,-2.003560066E0,7.931315303E-1
3.232568702E1,2.440404743E-1,1.489059210E0,1.859319657E-1
3.234514775E1,8.304706812E-1,2.030590773E0,-1.674533039E-1
3.236460838E1,1.075274706E0,1.183016062E0,-9.980003536E-2
3.238406910E1,1.129183531E0,9.399681538E-2,1.614973694E-1
3.240352973E1,1.097876668E0,-3.895026445E-1,2.942077518E-1
3.242299046E1,1.033430457E0,-2.490037531E-1,1.514181048E-1
3.244245108E1,9.740238786E-1,1.077412739E-1,3.642281145E-2
3.246191171E1,7.296779752E-1,9.873101860E-2,-6.849320978E-2
3.248137244E1,3.442223072E-1,-7.864884101E-3,-1.537088454E-1
3.250083306E1,8.567378670E-2,9.537126124E-2,-1.477529258E-1
3.252029379E1,1.006399691E-1,-8.017600514E-3,-9.735657275E-2
3.253975442E1,2.365573794E-1,-2.809214294E-1,-3.596466407E-2
3.255921515E1,3.032943606E-1,-4.200458825E-1,-5.062541738E-2
3.257867577E1,2.638935745E-1,-3.687332571E-1,-1.524871141E-1
3.259813650E1,1.380554438E-1,-3.508654535E-1,-3.258199990E-1
3.261759713E1,3.359756200E-3,-4.805215001E-1,-4.498255551E-1
3.263705775E1,-7.941242307E-2,-6.286562085E-1,-4.481456876E-1
3.265651848E1,-1.217148080E-1,-7.103593946E-1,-3.369682729E-1
3.267597910E1,-4.917461425E-2,-5.800924897E-1,-9.277509153E-2
3.269543983E1,-3.802633286E-2,-4.936550856E-1,-2.832885459E-2
3.271490046E1,1.038470119E-2,-5.765799880E-1,-1.364519149E-1
3.273436119E1,2.079994529E-1,-7.170788646E-1,-1.552360058E-1
3.275382181E1,4.285216331E-1,-8.800270557E-1,-2.945131958E-1
3.277328254E1,-8.093958721E-3,-1.217835307E0,6.818778068E-2
3.279274317E1,-7.018836141E-1,7.299070358E-1,8.788817376E-2
3.281220390E1,-1.434310555E0,1.443244457E0,-6.253728271E-2
3.283166452E1,-1.313206553E0,6.686678529E-1,1.211803034E-1
3.285112525E1,-1.904370934E-1,1.500436664E-1,3.442986608E-1
3.287058588E1,2.718348205E-1,4.037052691E-1,5.206858516E-1
3.289004660E1,-1.469129771E-1,9.209550023E-1,3.957640231E-1
3.290950733E1,-5.355756879E-1,1.393458962E0,1.633299738E-1
3.292896796E1,-3.813323379E-1,1.201800108E0,1.698967665E-1
3.294842869E1,1.750127524E-1,1.254563481E-1,3.047451675E-1
3.296788931E1,4.141663313E-1,-5.191587210E-1,3.482692838E-1
3.298734994E1,-5.696314201E-2,-4.979311526E-1,1.494327933E-1
3.300681067E1,-5.703949928E-1,-3.898080885E-1,-7.124210149E-2
3.302627129E1,-6.056724191E-1,-3.369682729E-1,-1.248454899E-1
3.304573202E1,-1.521053314E-1,-5.280162692E-1,-3.397935256E-2
3.306519265E1,3.546070158E-1,-7.073050737E-1,8.391755074E-2
3.308465338E1,6.207913160E-1,-5.862011313E-1,2.410625070E-1
3.310411400E1,6.247619390E-1,-2.299142331E-1,3.238346875E-1
3.312357473E1,4.561632872E-1,1.468366235E-1,2.387717664E-1
3.314303536E1,2.299905866E-1,3.730092943E-1,1.321758628E-1
3.316249608E1,-5.192350596E-3,4.701367915E-1,8.681915700E-2
3.318195671E1,-2.898553312E-1,2.483928949E-1,-5.574141163E-3
3.320141744E1,-6.131555438E-1,-4.229474962E-1,-1.271362305E-1
3.322087806E1,-1.043815136E0,-1.077794552E0,-3.391063213E-1
3.324033879E1,-8.739947677E-1,-2.592281103E0,7.903063297E-2
3.325979952E1,2.040288299E-1,-2.908479869E-1,3.870591819E-1
3.327926015E1,4.017963111E-1,2.558377981E0,-2.409097999E-1
3.329872088E1,8.891136646E-1,2.252029419E0,-2.589302957E-1
3.331818150E1,1.346040487E0,1.304119945E0,-3.000873141E-2
3.333764223E1,1.245705962E0,5.463421941E-1,2.713003159E-1
3.335710286E1,7.912226319E-1,5.161044002E-1,2.615264952E-1
3.337656358E1,4.911352694E-1,8.882737756E-1,7.979421318E-2
3.339602421E1,4.282162189E-1,9.203441739E-1,2.038761228E-2
3.341548494E1,4.795288444E-1,4.447859228E-1,-1.931859925E-2
3.343494556E1,4.095848203E-1,2.225838602E-1,-9.964732081E-2
3.345440629E1,1.919642538E-1,1.430187225E-1,-1.996764243E-1
3.347386692E1,4.153880477E-2,5.169443041E-2,-2.428951114E-1
3.349332765E1,-1.527161920E-3,-5.703949928E-2,-2.181550860E-1
3.351278827E1,3.207040019E-3,-7.399099320E-2,-2.065486610E-1
3.353224900E1,2.596175298E-3,-4.146244749E-2,-2.667188346E-1
3.355170963E1,4.886918236E-3,-1.246927753E-1,-3.388008773E-1
3.357117036E1,-4.153880477E-2,-2.870301008E-1,-3.559050858E-1
3.359063098E1,-1.733328849E-1,-2.410625070E-1,-2.795470059E-1
3.361009171E1,-3.046688139E-1,-2.653443813E-1,-1.534034163E-1
3.362955233E1,-4.989238083E-1,-4.472293854E-1,-1.020907760E-1
3.364901306E1,-7.354812026E-1,-8.088613153E-1,-1.002581790E-1
3.366847369E1,-1.045953274E0,-1.783954263E0,-4.069886729E-2
3.368793442E1,-6.453786492E-1,-2.326554775E0,6.031526327E-1
3.370739515E1,-1.011592031E0,1.195386052E0,-1.602756530E-1
3.372685577E1,-8.849903345E-1,1.934226990E0,-4.133263826E-1
3.374631650E1,7.910698652E-2,9.331722856E-1,1.763872057E-2
3.376577713E1,6.279689670E-1,3.331503868E-1,5.959749222E-1
3.378523786E1,5.813905597E-1,4.339430630E-1,5.486329198E-1
3.380469858E1,3.972148299E-1,7.595340014E-1,2.230419964E-1
3.382415921E1,2.855792940E-1,7.369319797E-1,5.291616172E-2
3.384361994E1,2.825249732E-1,1.709657758E-1,3.894262947E-3
3.386308056E1,3.746128380E-1,-1.443168055E-2,2.313650399E-2
3.388254129E1,3.199404180E-1,3.517817557E-1,2.099847607E-2
3.390200192E1,1.434005052E-1,2.247218788E-1,-8.009964228E-2
3.392146265E1,4.031707719E-2,-1.979965419E-1,-1.198058575E-1
3.394092327E1,9.025526792E-2,-4.441750646E-1,-1.161406636E-1
3.396038400E1,2.348775119E-1,-4.270708263E-1,-7.124210149E-2
3.397984463E1,3.767508566E-1,-2.435059696E-1,-3.871355578E-2
3.399930536E1,4.430296719E-1,5.902481079E-2,-4.314232618E-2
3.401876598E1,4.579958618E-1,3.424660563E-1,-9.552398324E-2
3.403822671E1,3.752236962E-1,3.308596313E-1,-1.556941569E-1
3.405768733E1,1.603520066E-1,9.750928730E-2,-1.382845193E-1
3.407714806E1,-6.078104675E-2,-2.479347438E-1,-1.317177117E-1
3.409660869E1,-2.455676347E-1,-1.129259944E0,-2.442695498E-1
3.411606942E1,-1.180801630E0,-1.959577799E0,-2.435823344E-2
3.413553015E1,-1.487150311E0,-2.168646336E0,3.609447181E-1
3.415499077E1,-3.510945439E-1,1.123227626E-1,4.160752594E-1
3.417445150E1,9.514218569E-2,1.286404848E0,1.666897237E-1
3.419391213E1,2.229656428E-1,9.073632956E-1,-7.276926935E-2
3.421337286E1,3.017672002E-1,3.420079052E-1,-2.519817324E-3
3.423283358E1,3.984365463E-1,9.888373315E-2,1.883754283E-1
3.425229421E1,4.376846254E-1,1.436295807E-1,1.378263682E-1
3.427175494E1,5.852084756E-1,5.950586796E-1,1.397353224E-2
3.429121556E1,7.531962991E-1,7.741947770E-1,-4.512763396E-2
3.431067629E1,6.611084342E-1,4.508945644E-1,-1.027016416E-1
3.433013692E1,2.298378795E-1,-9.720385820E-2,-1.688277572E-1
3.434959765E1,-2.234237939E-1,-2.987892330E-1,-1.837939471E-1
3.436905827E1,-3.839285076E-1,-1.979965419E-1,-1.908188909E-1
3.438851900E1,-2.075413018E-1,-5.306887627E-2,-1.995237023E-1
3.440797963E1,9.162971750E-3,-3.397935256E-2,-2.512944937E-1
3.442744036E1,8.216131479E-2,-2.649625950E-2,-3.560578227E-1
3.444690098E1,3.405570984E-2,3.642281145E-2,-4.395935535E-1
3.446636171E1,-8.781181276E-2,1.790597439E-1,-4.702895284E-1
3.448582233E1,-1.832594275E-1,2.202931046E-1,-3.835467100E-1
3.450528306E1,-2.112064958E-1,1.274416596E-1,-2.186132371E-1
3.452474379E1,-1.960875988E-1,-7.964149863E-2,-6.421715766E-2
3.454420442E1,-1.855501831E-1,-2.613737583E-1,6.131555140E-2
3.456366515E1,-2.105956376E-1,-6.405680776E-1,1.133917719E-1
3.458312577E1,-2.993237376E-1,-1.042517066E0,6.223184988E-2
3.460258650E1,-4.796815813E-1,-1.018998861E0,-3.588830587E-3
3.462204713E1,-5.036579967E-1,-1.064050078E0,-1.007163301E-1
3.464150786E1,-4.798342884E-1,-1.958356142E0,2.192240953E-1
3.466096858E1,-2.735147178E-1,-1.153007243E-2,3.511708975E-1
3.468042921E1,-3.726275265E-2,1.350392938E0,2.572504282E-1
3.469988994E1,-1.128572673E-1,5.883391500E-1,3.485747278E-1
3.471935056E1,-8.017600328E-2,5.367974192E-2,5.661953092E-1
3.473881129E1,8.857539296E-2,3.401753306E-1,6.069704890E-1
3.475827202E1,2.628245652E-1,9.191223979E-1,4.073704481E-1
3.477773265E1,4.596757591E-1,7.570905089E-1,2.742019296E-1
3.479719338E1,4.589121640E-1,-8.132137358E-2,1.659261435E-1
3.481665400E1,2.576322258E-1,2.145662531E-2,1.045342386E-1
3.483611473E1,1.177441850E-1,4.873937368E-1,-3.459021822E-2
3.485557536E1,1.212566569E-1,5.194641352E-1,-1.642462611E-1
3.487503608E1,2.800815105E-1,3.505600393E-1,-1.259144992E-1
3.489449671E1,5.448913574E-1,1.112537459E-1,-2.756527252E-2
3.491395744E1,7.255546451E-1,1.098793000E-1,6.070468575E-2
3.493341806E1,7.162389755E-1,3.960694373E-1,9.338594973E-2
3.495287879E1,5.426006317E-1,7.224239707E-1,6.070468575E-2
3.497233952E1,1.519526094E-1,8.653663397E-1,2.008217946E-2
3.499180015E1,-3.694204688E-1,7.757219076E-1,-3.413207084E-2
3.501126088E1,-7.571669221E-1,4.582249522E-1,-3.962985426E-2
3.503072150E1,-8.988875151E-1,5.062541738E-2,1.916588284E-2
3.505018223E1,-7.655662894E-1,-8.760564327E-1,2.279289216E-1
3.506964296E1,-5.271763206E-1,-2.234925270E0,9.824996591E-1
3.508910358E1,-6.565269232E-1,-1.674304008E0,1.045876861E0
3.510856431E1,-8.416189551E-1,7.647263408E-1,2.089921087E-1
3.512802494E1,-2.551887631E-1,1.517158985E0,-2.893208265E-1
3.514748567E1,7.473930717E-1,7.112756968E-1,-1.819613427E-1
3.516694640E1,9.998329282E-1,-4.852557182E-1,-1.718057133E-2
3.518640702E1,6.675224900E-1,-2.288452238E-1,6.375901401E-2
3.520586775E1,4.175260663E-1,3.873646259E-1,6.337722298E-3
3.522532848E1,9.773836471E-3,6.569086909E-1,-1.347720474E-1
3.524478910E1,-3.121519089E-1,5.579485893E-1,-2.348011434E-1
3.526424983E1,-7.712167501E-2,1.027016416E-1,-2.144898921E-1
3.528371046E1,4.132500291E-1,-5.219075680E-1,-1.414915472E-1
3.530317119E1,6.884446144E-1,-7.184533477E-1,1.550069358E-2
3.532263192E1,6.256782413E-1,-6.549233794E-1,1.724929363E-1
3.534209254E1,3.057378232E-1,-5.645154119E-1,2.151007652E-1
3.536155327E1,4.734201822E-3,-3.262781501E-1,1.249982044E-1
3.538101400E1,-6.337722391E-2,5.062541738E-2,-4.375318810E-2
3.540047463E1,9.162971377E-2,3.438405097E-1,-1.822667718E-1
3.541993536E1,2.866483033E-1,4.707476795E-1,-1.618028134E-1
3.543939598E1,3.376555145E-1,4.895317554E-1,-7.215840369E-2
3.545885671E1,2.196058929E-1,4.127155244E-1,-1.855501719E-2
3.547831744E1,2.596175298E-2,2.690095901E-1,-5.574141163E-3
3.549777806E1,-1.585194170E-1,1.176678315E-1,-1.550069358E-2
3.551723879E1,-2.843575478E-1,4.650207981E-2,-3.336848691E-2
3.553669942E1,-3.536907136E-1,2.672533505E-3,-3.336848691E-2
3.555616015E1,-4.059196413E-1,-5.276344717E-2,-5.879573524E-3
3.557562088E1,-4.511236250E-1,-8.910989761E-2,2.069304511E-2
3.559508150E1,-4.679224193E-1,-7.628174126E-2,2.680169232E-2
3.561454223E1,-4.702131748E-1,-2.741255611E-2,3.588830587E-3
3.563400296E1,-4.447095692E-1,1.748600416E-2,-3.184132650E-2
3.565346358E1,-4.010327160E-1,3.260490671E-2,-5.016727000E-2
3.567292431E1,-3.642281294E-1,2.420551702E-2,-4.848739132E-2
3.569238504E1,-3.226893246E-1,-2.176205814E-2,-4.512763396E-2
3.571184567E1,-2.629773021E-1,-5.703949928E-2,-5.184714869E-2
3.573130640E1,-2.083048970E-1,-6.604975462E-2,-4.940368980E-2
3.575076702E1,-1.617264450E-1,-7.735075057E-2,-4.680751264E-2
3.577022775E1,-9.560033679E-2,-1.007163301E-1,-5.154171586E-2
3.578968848E1,-2.138026804E-2,-1.100320220E-1,-4.421133921E-2
3.580914910E1,3.130681813E-2,-1.085048541E-1,-3.642281145E-2
3.582860983E1,7.269290835E-2,-1.066722646E-1,-4.665479809E-2
3.584807056E1,1.169806048E-1,-9.827287495E-2,-6.223184988E-2
3.586753119E1,1.603520066E-1,-9.246965498E-2,-6.543888897E-2
3.588699192E1,1.814268380E-1,-1.150716543E-1,-6.101011857E-2
3.590645265E1,1.721111536E-1,-1.476002038E-1,-4.604393244E-2
3.592591327E1,1.447749585E-1,-1.776852906E-1,-2.405280061E-2
3.594537400E1,1.220202371E-1,-2.363283187E-1,-1.198822167E-2
3.596483473E1,1.087339297E-1,-2.913061380E-1,-2.328922041E-2
3.598429536E1,1.224783882E-1,-3.107011020E-1,-3.840812296E-2
3.600375608E1,1.624900252E-1,-3.238346875E-1,-5.031998456E-2
3.602321671E1,1.947131455E-1,-3.366628587E-1,-6.330086291E-2
3.604267744E1,1.777616441E-1,-3.259727061E-1,-5.856665969E-2
3.606213817E1,1.079703495E-1,-3.158934414E-1,-4.130972922E-2
3.608159890E1,4.657844082E-2,-3.134499788E-1,-4.543306679E-2
3.610105952E1,2.794706449E-2,-3.053560257E-1,-7.628174126E-2
3.612052025E1,7.131846249E-2,-2.166279256E-1,-1.008690447E-1
3.613998088E1,1.079703495E-1,-9.231694043E-2,-1.008690447E-1
3.615944161E1,1.018617004E-1,-3.229947388E-2,-7.429642975E-2
3.617890233E1,7.696896046E-2,-5.230529606E-2,-5.367974192E-2
3.619836296E1,6.261363626E-2,-9.582941234E-2,-5.215258151E-2
3.621782369E1,5.971203372E-2,-1.123227626E-1,-5.261072889E-2
3.623728442E1,6.230820715E-2,-8.376483619E-2,-4.466948658E-2
3.625674504E1,6.307178736E-2,-2.756527252E-2,-4.054614902E-2
3.627620577E1,5.833758786E-2,1.870773360E-2,-2.695440874E-2
3.629566650E1,4.444041103E-2,2.741255611E-2,1.145371469E-3
3.631512713E1,6.261364091E-3,1.580612548E-2,1.962403022E-2
3.633458786E1,-3.787361458E-2,5.879573524E-3,1.076649129E-2
3.635404858E1,-7.757982612E-2,8.170315996E-3,9.926552884E-4
3.637350931E1,-1.188132018E-1,2.374736778E-2,1.366809942E-2
3.639296994E1,-1.661552191E-1,6.498073786E-2,2.832885459E-2
3.641243067E1,-1.849393100E-1,1.202640012E-1,3.123046272E-2
3.643189140E1,-1.517999023E-1,1.973856837E-1,3.627009690E-2
3.645135202E1,-9.575305134E-2,2.658025324E-1,4.146244749E-2
3.647081275E1,-4.001164436E-2,3.221548200E-1,4.833467677E-2
3.649027348E1,8.093958721E-3,3.548360765E-1,4.879282415E-2
3.650973410E1,4.581485689E-2,3.853793144E-1,4.833467677E-2
3.652919483E1,7.589995116E-2,4.176024497E-1,4.253146052E-2
3.654865556E1,9.178243577E-2,4.232529402E-1,1.779143699E-2
3.656811629E1,1.014035568E-1,3.861429095E-1,-9.392046370E-3
3.658757692E1,1.117882580E-1,3.137554228E-1,-1.550069358E-2
3.660703765E1,1.247691289E-1,2.352592945E-1,-1.107192412E-2
3.662649838E1,1.385135949E-1,1.708130687E-1,-6.032289471E-3
3.664595900E1,1.531743407E-1,1.054505333E-1,-6.872228696E-4
3.666541973E1,1.574503928E-1,4.482220486E-2,1.145371469E-3
3.668488046E1,1.438586563E-1,-7.559451740E-3,2.519817324E-3
3.670434119E1,1.169806048E-1,-5.429060757E-2,8.017600514E-3
3.672380181E1,8.826996386E-2,-9.399681538E-2,1.305723470E-2
3.674326254E1,5.375609919E-2,-1.114064679E-1,1.290451828E-2
3.676272327E1,1.435532235E-2,-1.059086844E-1,8.781181648E-3
3.678218390E1,-2.871064469E-2,-1.040760875E-1,8.170315996E-3
3.680164463E1,-6.230820715E-2,-1.020907760E-1,8.323032409E-3
3.682110536E1,-6.994401664E-2,-8.926261961E-2,9.697478265E-3
3.684056608E1,-3.863719851E-2,-3.596466407E-2,1.382081583E-2
3.686002671E1,1.114828233E-2,-3.283398226E-3,1.733328775E-2
3.687948744E1,3.145953640E-2,-4.505127668E-3,1.168278884E-2
3.689894817E1,-7.635809598E-4,-1.748600416E-2,-6.643154658E-3
3.691840890E1,-4.505127668E-2,-5.574141163E-3,-1.947131567E-2
3.693786952E1,-6.643154472E-2,3.000873141E-2,-1.580612548E-2
3.695733025E1,-6.078104675E-2,6.101011857E-2,3.588830587E-3
3.697679098E1,-4.948004708E-2,6.711876392E-2,1.122464053E-2
3.699625161E1,-4.917461425E-2,5.245801434E-2,2.672533505E-3
3.701571233E1,-5.803215504E-2,4.787652567E-2,-1.107192412E-2
3.703517306E1,-7.299833745E-2,4.543306679E-2,-1.840230078E-2
3.705463379E1,-8.704823256E-2,4.268417507E-2,-2.099847607E-2
3.707409442E1,-8.979712427E-2,3.245219216E-2,-2.588539571E-2
3.709355515E1,-8.888082206E-2,3.627009690E-2,-3.520108387E-2
3.711301588E1,-7.819069177E-2,4.726566374E-2,-4.024071619E-2
3.713247660E1,-5.971203372E-2,4.436405376E-2,-4.344775900E-2
3.715193723E1,-5.161807314E-2,3.596466407E-2,-4.925097153E-2
3.717139796E1,-5.635227636E-2,2.878700197E-2,-5.551233515E-2
3.719085869E1,-6.459894776E-2,1.244636998E-2,-5.291616172E-2
3.721031942E1,-6.108647957E-2,-9.544761851E-3,-5.184714869E-2
3.722978004E1,-3.711003438E-2,-2.542724647E-2,-5.367974192E-2
3.724924077E1,3.665188793E-3,-2.160934173E-2,-5.352702737E-2
3.726870150E1,5.115992576E-2,-1.580612548E-2,-4.146244749E-2
3.728816223E1,9.605848789E-2,-2.680169232E-2,-3.611737862E-2
3.730762286E1,1.148425788E-1,-5.535962060E-2,-4.085158184E-2
3.732708358E1,1.192713454E-1,-6.681333482E-2,-4.879282415E-2
3.734654431E1,1.140789986E-1,-6.604975462E-2,-6.406444311E-2
3.736600494E1,9.682206810E-2,-8.697187155E-2,-7.399099320E-2
3.738546567E1,5.039634556E-2,-1.190422773E-1,-7.536543906E-2
3.740492640E1,-2.932151034E-2,-1.268308014E-1,-7.460185885E-2
3.742438713E1,-1.175914705E-1,-1.014799103E-1,-7.124210149E-2
3.744384775E1,-1.760817766E-1,-8.437569439E-2,-5.658135191E-2
3.746330848E1,-2.167042792E-1,-6.223184988E-2,-3.199404106E-2
3.748276921E1,-2.446513474E-1,-5.352702737E-2,-4.046979360E-3
3.750222994E1,-2.409861535E-1,-7.414371520E-2,1.397353224E-2
3.752169056E1,-1.988364905E-1,-9.995274991E-2,2.787070535E-2
3.754115129E1,-1.197294965E-1,-1.158352345E-1,5.383246019E-2
3.756061202E1,-4.810560122E-2,-1.259144992E-1,8.865175396E-2
3.758007265E1,-1.404988952E-2,-1.239291951E-1,1.202640012E-1
3.759953338E1,5.345067009E-3,-9.537126124E-2,1.234710440E-1
3.761899411E1,2.351829410E-2,-4.818195850E-2,8.590286225E-2
3.763845483E1,3.802633286E-2,-1.168278884E-2,3.382663801E-2
3.765791546E1,4.642572254E-2,3.474293277E-2,-5.115992390E-3
3.767737619E1,4.153880477E-2,6.467530876E-2,-2.359465137E-2
3.769683692E1,3.054323979E-2,6.864593178E-2,-3.504836559E-2
3.771629765E1,1.756236330E-2,4.054614902E-2,-4.375318810E-2
3.773575827E1,1.450803876E-2,1.519526169E-2,-5.154171586E-2
3.775521900E1,2.855792828E-2,-2.214384731E-3,-5.123628303E-2
3.777467973E1,6.612611562E-2,-1.656970754E-2,-3.321577236E-2
3.779414046E1,1.142317131E-1,-2.725984156E-2,8.933897130E-3
3.781360108E1,1.481347084E-1,-2.283107117E-2,4.665479809E-2
3.783306181E1,1.718057245E-1,1.122464053E-2,6.604975462E-2
3.785252254E1,2.008218020E-1,6.375901401E-2,7.780890167E-2
3.787198317E1,2.188423127E-1,1.132390574E-1,9.414953738E-2
3.789144390E1,2.162461281E-1,1.359937787E-1,1.033125073E-1
3.791090463E1,2.070831656E-1,1.297324002E-1,1.008690447E-1
3.793036536E1,2.095266134E-1,1.260672212E-1,9.766200930E-2
3.794982598E1,2.145662606E-1,1.231656075E-1,9.567669779E-2
3.796928671E1,2.050978541E-1,1.129336283E-1,8.712458611E-2
3.798874744E1,1.757763475E-1,1.068249792E-1,6.421715766E-2
3.800820806E1,1.463021189E-1,9.521854669E-2,3.794997558E-2
3.802766879E1,1.343902498E-1,8.254310489E-2,1.916588284E-2
3.804712952E1,1.339320987E-1,8.239039034E-2,-5.879573524E-3
3.806659025E1,1.331685185E-1,7.994692773E-2,-5.581776798E-2
3.808605088E1,1.247691289E-1,1.565340906E-2,-1.074358448E-1
3.810551161E1,7.880155742E-2,-1.236237586E-1,-1.599702090E-1
3.812497233E1,-1.527161989E-2,-1.874591261E-1,-2.053269297E-1
3.814443306E1,-1.304196268E-1,-1.091157198E-1,-2.239582986E-1
3.816389369E1,-2.110537887E-1,1.298087649E-3,-2.199876755E-1
3.818335442E1,-2.188423127E-1,8.590286225E-2,-1.970802546E-1
3.820281515E1,-1.531743407E-1,1.262199283E-1,-1.579848975E-1
3.822227588E1,-6.200277433E-2,7.780890167E-2,-1.323285848E-1
3.824173650E1,1.282816008E-2,4.314232618E-2,-1.027016416E-1
3.826119723E1,3.084867075E-2,4.528035223E-2,-5.734493211E-2
3.828065796E1,-1.939495653E-2,3.168861195E-2,-1.000291109E-2
3.830011858E1,-9.514218569E-2,-1.656970754E-2,1.397353224E-2
3.831957931E1,-1.336266696E-1,-4.619665071E-2,1.580612548E-2
3.833904004E1,-1.293506175E-1,-5.551233515E-2,1.779143699E-2
3.835850077E1,-1.142317131E-1,-5.276344717E-2,1.886045001E-2
3.837796140E1,-8.765909821E-2,-3.382663801E-2,3.581194952E-2
3.839742213E1,-2.565632015E-2,-1.153007243E-2,6.589704007E-2
3.841688286E1,4.871646687E-2,-1.763872057E-2,7.948877662E-2
3.843634358E1,1.270598769E-1,-6.543888897E-2,6.666062027E-2
3.845580421E1,2.044869810E-1,-1.069776937E-1,3.978256881E-2
3.847526494E1,2.722929716E-1,-1.191949919E-1,9.544761851E-3
3.849472567E1,3.144426346E-1,-1.162933856E-1,1.977674663E-2
3.851418640E1,3.222311735E-1,-1.747836918E-1,5.948295817E-2
3.853364702E1,2.893971801E-1,-2.625955045E-1,8.315397054E-2
3.855310775E1,2.049451321E-1,-2.740492225E-1,9.918916970E-2
3.857256848E1,8.735366166E-2,-2.343430072E-1,1.042288020E-1
3.859202910E1,-1.939495653E-2,-2.332739830E-1,1.217911690E-1
3.861148983E1,-8.857539296E-2,-2.042579055E-1,1.779907197E-1
3.863095056E1,-1.258381456E-1,-1.405752599E-1,2.662606835E-1
3.865041129E1,-1.264490038E-1,-7.108938694E-2,3.484219909E-1
3.866987192E1,-1.024725661E-1,-1.030834299E-2,3.705658615E-1
3.868933265E1,-6.352993846E-2,5.115992390E-3,3.502545953E-1
