"Time (s)","Acceleration x (m/s^2)","Acceleration y (m/s^2)","Acceleration z (m/s^2)"
2.980214000E-2,9.745966911E0,7.627122402E-1,1.549352705E-1
4.926255700E-2,9.775876999E0,5.988038778E-1,2.057827413E-1
6.872297300E-2,9.748359680E0,4.797609448E-1,2.321037948E-1
8.818339000E-2,9.647860527E0,4.145565331E-1,2.751746178E-1
1.076437020E-1,9.558728218E0,3.678964674E-1,3.936193287E-1
1.271041190E-1,9.516255379E0,3.320041299E-1,5.473581553E-1
1.465645360E-1,9.493523598E0,3.696911037E-1,7.100701332E-1
1.660249520E-1,9.468997002E0,3.966103494E-1,7.429714203E-1
1.854853690E-1,9.466006279E0,2.943171859E-1,6.873382926E-1
2.049457860E-1,9.501898766E0,1.417747438E-1,6.574280262E-1
2.244062020E-1,9.672387123E0,-7.776673418E-3,6.340979934E-1
2.438666190E-1,9.954142570E0,-6.041877344E-2,5.174478889E-1
2.633270360E-1,1.018385315E1,-4.725824669E-2,4.977070987E-1
2.827874520E-1,1.024726295E1,6.161518395E-2,5.138586760E-1
3.022478690E-1,1.018804073E1,2.440679073E-1,3.678964674E-1
3.217081820E-1,1.017069244E1,3.403790295E-1,2.757728100E-1
3.411685980E-1,1.017787075E1,3.954139352E-1,2.315055877E-1
3.606290150E-1,1.016052341E1,4.199403822E-1,1.986042857E-1
3.800894320E-1,1.015155029E1,5.198407173E-1,2.063809484E-1
3.995498480E-1,1.025324535E1,6.185446382E-1,1.848455518E-1
4.190102650E-1,1.027478027E1,6.532405615E-1,9.152546525E-2
4.384706820E-1,1.014317513E1,5.647061467E-1,-2.991028363E-3
4.579310980E-1,1.002413273E1,3.475574851E-1,-4.666004330E-2
4.773915150E-1,1.000558758E1,2.249253243E-1,8.135596663E-2
4.968519320E-1,9.948160172E0,2.015953064E-1,3.332005441E-1
5.163123480E-1,9.836894035E0,2.231307179E-1,4.199403822E-1
5.357727650E-1,9.636494637E0,3.894318938E-1,3.194418252E-1
5.552331820E-1,9.532406807E0,5.012963414E-1,2.063809484E-1
5.746934940E-1,9.562915802E0,4.863412082E-1,1.435693651E-1
5.941539110E-1,9.762118340E0,3.900300860E-1,1.034895778E-1
6.136143270E-1,9.997811317E0,3.230310678E-1,1.657029688E-1
6.330747440E-1,1.003609657E1,2.715853751E-1,1.639083475E-1
6.525351610E-1,9.978070259E0,2.614158690E-1,5.982056726E-3
6.719955770E-1,9.908080101E0,2.608176768E-1,-1.453639716E-1
6.914559940E-1,9.881160736E0,2.787638307E-1,-8.973085321E-3
7.109164110E-1,9.900303841E0,3.481557071E-1,1.501496136E-1
7.303768270E-1,9.921838760E0,4.061816335E-1,1.746760458E-1
7.498372440E-1,9.933204651E0,3.266202807E-1,2.141576260E-1
7.692976610E-1,9.986445427E0,2.452643216E-1,1.896311939E-1
7.887579730E-1,9.971489906E0,2.315055877E-1,1.555334777E-1
8.082183900E-1,9.853045464E0,3.469592929E-1,1.034895778E-1
8.276788070E-1,9.707681656E0,4.989035130E-1,8.255238086E-2
8.471392230E-1,9.625128746E0,6.442674994E-1,6.460621208E-2
8.665996400E-1,9.683155060E0,7.160521746E-1,7.238288224E-2
8.860600570E-1,9.799206734E0,7.022934556E-1,1.663011760E-1
9.055204730E-1,9.932606697E0,6.400800347E-1,2.386840582E-1
9.249808900E-1,1.006959629E1,5.048855543E-1,2.667997181E-1
9.444413070E-1,1.009412193E1,4.043870270E-1,2.751746178E-1
9.639017230E-1,1.005165005E1,3.966103494E-1,2.757728100E-1
9.833621400E-1,9.967901230E0,4.827519655E-1,2.697907388E-1
1.002822557E0,9.878170013E0,5.551348329E-1,2.518445849E-1
1.022282869E0,9.833304405E0,5.425725579E-1,1.549352705E-1
1.041743286E0,9.761520386E0,5.132604837E-1,1.375873089E-1
1.061203702E0,9.736993790E0,4.630111754E-1,8.434699476E-2
1.080664119E0,9.795618057E0,4.492524564E-1,-2.153540403E-2
1.100124536E0,9.796216011E0,5.030909777E-1,-1.794617064E-2
1.119584952E0,9.768698692E0,5.072783828E-1,4.965107143E-2
1.139045369E0,9.882357597E0,5.491527915E-1,5.802594870E-2
1.158505786E0,9.978070259E0,5.515456200E-1,9.092725813E-2
1.177966202E0,1.000678444E1,4.911268353E-1,1.830509305E-1
1.197426619E0,9.986445427E0,4.671986103E-1,1.459621787E-1
1.216887036E0,9.896116257E0,4.683950245E-1,1.531406492E-1
1.236347452E0,9.869794846E0,4.636093974E-1,1.393819153E-1
1.255807869E0,9.817152977E0,4.737788737E-1,1.292124242E-1
1.275268182E0,9.734601021E0,5.102694035E-1,1.339980662E-1
1.294728598E0,9.768698692E0,5.533402562E-1,1.489532143E-1
1.314189015E0,9.915857315E0,5.784648657E-1,1.902294010E-1
1.333649432E0,1.003131104E1,5.982056856E-1,2.093719840E-1
1.353109848E0,9.990034103E0,5.898307562E-1,2.344966233E-1
1.372570265E0,9.868598938E0,5.407779217E-1,2.315055877E-1
1.392030682E0,9.784252167E0,4.887340367E-1,1.998006850E-1
1.411491098E0,9.812367439E0,4.881358147E-1,1.782652885E-1
1.430951515E0,9.889535904E0,5.078766346E-1,2.111666054E-1
1.450411932E0,9.957133293E0,4.845465720E-1,2.350948304E-1
1.469872348E0,9.918250084E0,4.707878530E-1,3.308077157E-1
1.489332661E0,9.859027863E0,4.295116663E-1,3.726821244E-1
1.508793077E0,9.933803558E0,4.666004181E-1,3.086741269E-1
1.528253494E0,9.860821724E0,4.971089065E-1,3.218346536E-1
1.547713911E0,9.881759644E0,5.108676553E-1,3.774677813E-1
1.567174327E0,9.939785004E0,5.108676553E-1,4.313062727E-1
1.586634744E0,9.943972588E0,4.725824594E-1,4.163511395E-1
1.606095161E0,9.939785004E0,4.378865361E-1,3.487538993E-1
1.625555577E0,9.882357597E0,4.564309120E-1,2.656033039E-1
1.645015994E0,9.851848602E0,5.024927258E-1,2.386840582E-1
1.664476411E0,9.915857315E0,5.318048596E-1,2.338984162E-1
1.683936827E0,9.944570541E0,5.503492355E-1,2.063809484E-1
1.703397244E0,9.936196327E0,5.730810165E-1,2.045863420E-1
1.722857557E0,9.887741089E0,5.665007830E-1,2.721835673E-1
1.742317973E0,9.862018585E0,5.120640397E-1,3.272185028E-1
1.761778390E0,9.913464546E0,5.282155871E-1,2.524427772E-1
1.781238807E0,9.937392235E0,5.748756528E-1,1.962114573E-1
1.800699223E0,9.933204651E0,6.562315822E-1,1.375873089E-1
1.820159640E0,9.866206169E0,7.513462901E-1,8.793623000E-2
1.839620057E0,9.768099785E0,8.153542876E-1,6.640082598E-2
1.859080473E0,9.726225853E0,8.644071817E-1,3.589234129E-2
1.878540890E0,9.704689980E0,8.835497499E-1,3.768695518E-2
1.898001307E0,9.623334885E0,8.697910309E-1,9.690931439E-2
1.917461723E0,9.568299294E0,8.201399446E-1,1.058823988E-1
1.936922036E0,9.665208817E0,7.746763229E-1,7.058826834E-2
1.956382452E0,9.756733894E0,7.603194118E-1,1.339980662E-1
1.975842869E0,9.853045464E0,7.112665176E-1,2.183450609E-1
1.995303286E0,9.890732765E0,6.687939167E-1,2.213360965E-1
2.014763702E0,9.869196892E0,5.682953596E-1,2.033899277E-1
2.034224119E0,9.812367439E0,4.821537733E-1,1.938186288E-1
2.053684536E0,9.754341125E0,4.875376225E-1,2.380858511E-1
2.073144952E0,9.694520950E0,5.904290080E-1,3.170489967E-1
2.092605369E0,9.695118904E0,6.699903607E-1,3.266202807E-1
2.112065682E0,9.731011391E0,6.807580590E-1,2.703889608E-1
2.131526098E0,9.815358162E0,5.706881881E-1,1.866401732E-1
2.150986515E0,9.913464546E0,4.893322289E-1,1.716850251E-1
2.170446932E0,1.001456070E1,5.054838061E-1,1.962114573E-1
2.189907348E0,1.003908730E1,5.102694035E-1,2.303091735E-1
2.209367765E0,9.982257843E0,5.509474277E-1,2.620140910E-1
2.228828182E0,9.831509590E0,5.718846321E-1,2.757728100E-1
2.248288598E0,9.716654778E0,5.515456200E-1,2.554338276E-1
2.267749015E0,9.671789169E0,5.222335458E-1,2.853440940E-1
2.287209432E0,9.672985077E0,5.120640397E-1,3.224328458E-1
2.306669744E0,9.732208252E0,4.935196638E-1,3.649054468E-1
2.326130161E0,9.821938515E0,4.725824594E-1,3.924229145E-1
2.345590577E0,9.845269203E0,4.426721931E-1,3.367897868E-1
2.365050994E0,9.921240807E0,4.079762697E-1,1.118644550E-1
2.384511411E0,1.000439167E1,3.780659735E-1,-2.452643216E-2
2.403971827E0,1.003190899E1,4.965106845E-1,1.734796353E-2
2.423432244E0,9.999606133E0,6.179464459E-1,7.417750359E-2
2.442892661E0,9.957731247E0,6.317051649E-1,2.063809484E-1
2.462353077E0,9.952945709E0,5.730810165E-1,2.907279432E-1
2.481813494E0,9.908679008E0,5.850451589E-1,2.943171859E-1
2.501273807E0,9.803992271E0,6.412764788E-1,2.799602449E-1
2.520734223E0,9.742377281E0,6.412764788E-1,2.398804724E-1
2.540194640E0,9.779465675E0,5.778666735E-1,1.597209126E-1
2.559655057E0,9.837491989E0,6.017948985E-1,1.543370634E-1
2.579115473E0,9.869794846E0,6.317051649E-1,1.453639716E-1
2.598575890E0,9.892526627E0,6.490531564E-1,1.328016520E-1
2.618036307E0,9.875179291E0,6.287141442E-1,1.507478207E-1
2.637496723E0,9.844670296E0,6.137589812E-1,2.093719840E-1
2.656957140E0,9.814760208E0,6.209374666E-1,2.267199457E-1
2.676417557E0,9.793225288E0,6.556333899E-1,2.015953064E-1
2.695877869E0,9.756135941E0,6.951149702E-1,1.890329868E-1
2.715338286E0,9.755537987E0,7.328019142E-1,1.316052526E-1
2.734798702E0,9.838688850E0,6.957131624E-1,9.451649338E-2
2.754259119E0,9.872187614E0,6.897311211E-1,1.525424421E-1
2.773719536E0,9.835099220E0,6.538388133E-1,1.722832322E-1
2.793179952E0,9.778269768E0,7.339983582E-1,9.690931439E-2
2.812640369E0,9.784252167E0,8.679963946E-1,9.571290761E-2
2.832100786E0,9.891928673E0,9.260223508E-1,1.734796464E-1
2.851561202E0,9.937990189E0,8.955138922E-1,1.633101404E-1
2.871021515E0,9.923633575E0,8.297112584E-1,1.908276081E-1
2.890481932E0,9.869196892E0,8.129615188E-1,2.356930375E-1
2.909942348E0,9.734601021E0,8.195417523E-1,3.104687333E-1
2.929402765E0,9.614361763E0,8.518448472E-1,3.457628787E-1
2.948863182E0,9.647262573E0,8.685946465E-1,2.919243574E-1
2.968323598E0,9.801599503E0,8.428717852E-1,2.219343036E-1
2.987784015E0,9.917651176E0,7.716853023E-1,2.410768867E-1
3.007244432E0,9.950552940E0,7.435696125E-1,2.374876440E-1
3.026704848E0,9.914062500E0,7.956135273E-1,2.721835673E-1
3.046165265E0,9.811769485E0,8.422735929E-1,2.847459018E-1
3.065625577E0,9.700503349E0,8.464609981E-1,2.847459018E-1
3.085085994E0,9.661021233E0,8.428717852E-1,2.650051117E-1
3.104546411E0,9.695717812E0,8.488538265E-1,2.644068897E-1
3.124006827E0,9.811170578E0,8.662018180E-1,2.691925466E-1
3.143467244E0,9.948160172E0,8.380861282E-1,2.021935135E-1
3.162927661E0,9.951150894E0,8.572286963E-1,1.627119333E-1
3.182388077E0,9.876974106E0,8.673982024E-1,1.686939895E-1
3.201848494E0,9.842277527E0,8.614161611E-1,2.063809484E-1
3.221308807E0,9.790233612E0,8.907282352E-1,1.567298770E-1
3.240769223E0,9.774680138E0,9.343972206E-1,1.585244983E-1
3.260229640E0,9.832108498E0,9.661021233E-1,2.267199457E-1
3.279690057E0,9.868598938E0,9.337990284E-1,2.368894368E-1
3.299150473E0,9.916455269E0,7.962117195E-1,3.092723191E-1
3.318610890E0,9.915857315E0,7.441678643E-1,3.619144261E-1
3.338071307E0,9.881160736E0,8.093722463E-1,3.655036688E-1
3.357531723E0,9.810572624E0,8.847461939E-1,3.314059377E-1
3.376992140E0,9.744172096E0,9.038887620E-1,3.110669553E-1
3.396452452E0,9.747760773E0,8.769695163E-1,2.925225794E-1
3.415912869E0,9.818349838E0,8.350951076E-1,2.877369225E-1
3.435373286E0,9.950552940E0,8.033902049E-1,2.823530734E-1
3.454833702E0,1.001156998E1,7.932206988E-1,3.002992272E-1
3.474294119E0,9.882357597E0,8.596215248E-1,3.349951804E-1
3.493754536E0,9.719047546E0,8.769695163E-1,3.631108403E-1
3.513214952E0,9.632905960E0,8.518448472E-1,3.822534084E-1
3.532675369E0,9.665208817E0,8.039883971E-1,4.085744619E-1
3.552135682E0,9.802198410E0,8.105686903E-1,3.864408433E-1
3.571596098E0,9.933204651E0,8.368897438E-1,3.224328458E-1
3.591056515E0,9.902098656E0,9.056833982E-1,3.302095234E-1
3.610516932E0,9.792028427E0,8.608179688E-1,3.643072546E-1
3.629977348E0,9.699306488E0,8.027920127E-1,4.001995921E-1
3.649437765E0,9.762716293E0,7.459624410E-1,2.997010350E-1
3.668898182E0,9.860223770E0,7.800601721E-1,3.499503136E-1
3.688358598E0,9.902696609E0,8.829515576E-1,4.402793646E-1
3.707819015E0,9.828518867E0,9.140582681E-1,4.624129832E-1
3.727279327E0,9.763913155E0,8.602197170E-1,4.671986103E-1
3.746739744E0,9.736394882E0,8.279166222E-1,4.845465720E-1
3.766200161E0,9.706484795E0,7.567301393E-1,4.917250574E-1
3.785660577E0,9.713663101E0,7.100701332E-1,3.936193287E-1
3.805120994E0,9.802796364E0,7.764709592E-1,3.218346536E-1
3.824581411E0,9.855438232E0,8.721838593E-1,3.074777126E-1
3.844041827E0,9.865009308E0,9.044869542E-1,3.080759048E-1
3.863502244E0,9.856036186E0,8.416753411E-1,3.553341627E-1
3.882962661E0,9.868000984E0,7.256234884E-1,3.888336718E-1
3.902422973E0,9.890732765E0,6.795616150E-1,3.427718580E-1
3.921883390E0,9.926624298E0,7.070791125E-1,3.002992272E-1
3.941343807E0,9.929615974E0,8.027920127E-1,3.284149170E-1
3.960804223E0,9.858428955E0,8.338986635E-1,3.822534084E-1
3.980264640E0,9.795019150E0,7.668996453E-1,3.768695593E-1
3.999725057E0,9.804591179E0,6.975077987E-1,3.373879790E-1
4.019185473E0,9.775279045E0,6.831508875E-1,3.661018610E-1
4.038645890E0,9.760921478E0,6.699903607E-1,4.181457460E-1
4.058106202E0,9.748957634E0,6.658028960E-1,4.139583111E-1
4.077566619E0,9.756733894E0,6.669993401E-1,3.290131092E-1
4.097027036E0,9.809974670E0,6.394818425E-1,3.852444589E-1
4.116487452E0,9.894919395E0,6.179464459E-1,4.295116663E-1
4.135947869E0,9.921838760E0,6.293123364E-1,4.277170599E-1
4.155408286E0,9.879366875E0,6.484549642E-1,4.241278172E-1
4.174868702E0,9.834501266E0,6.675975323E-1,4.013960063E-1
4.194329119E0,9.817750931E0,6.735795736E-1,3.493520916E-1
4.213789432E0,9.838089943E0,6.729813814E-1,2.817548811E-1
4.233249848E0,9.899106979E0,6.095715761E-1,2.727817893E-1
4.252710265E0,9.927821159E0,5.754738450E-1,2.751746178E-1
4.272170682E0,9.899106979E0,5.874379873E-1,2.709871531E-1
4.291631098E0,9.812965393E0,5.934200287E-1,3.068794906E-1
4.311091515E0,9.737591743E0,6.113662124E-1,3.002992272E-1
4.330551932E0,9.731011391E0,6.203392744E-1,2.662015259E-1
4.350012348E0,9.770493507E0,6.167500615E-1,2.458625287E-1
4.369472661E0,9.858428955E0,5.814558864E-1,2.626122832E-1
4.388933077E0,9.943972588E0,5.772684813E-1,2.536391914E-1
4.408393494E0,9.922437668E0,5.808576941E-1,2.207378894E-1
4.427853911E0,9.830911636E0,6.131607890E-1,2.093719840E-1
4.447314327E0,9.783055305E0,6.628118753E-1,2.644068897E-1
4.466774744E0,9.775876999E0,6.197410822E-1,2.799602449E-1
4.486235161E0,9.868000984E0,5.318048596E-1,2.051845491E-1
4.505695577E0,9.896116257E0,5.497509837E-1,1.680957973E-1
4.525155890E0,9.909276962E0,6.089733839E-1,2.303091735E-1
4.544616307E0,9.847063065E0,6.610172391E-1,2.500499785E-1
4.564076723E0,9.802198410E0,6.251249313E-1,2.327020019E-1
4.583537140E0,9.806385040E0,5.341976285E-1,2.470589429E-1
4.602997557E0,9.820143700E0,4.947160780E-1,2.476571500E-1
4.622457973E0,9.796813965E0,4.594219327E-1,2.255235314E-1
4.641918390E0,9.792626381E0,4.785645306E-1,1.579262912E-1
4.661378702E0,9.802796364E0,5.120640397E-1,1.399801224E-1
4.680839119E0,9.809974670E0,4.935196638E-1,1.375873089E-1
4.700299536E0,9.857233047E0,4.396811724E-1,1.375873089E-1
4.719759952E0,9.869794846E0,4.319044948E-1,1.393819153E-1
4.739220369E0,9.835099220E0,4.372883439E-1,1.232303679E-1
4.758680786E0,9.819545746E0,4.725824594E-1,1.010967568E-1
4.778141202E0,9.762716293E0,4.666004181E-1,6.699903309E-2
4.797601619E0,9.701101303E0,4.109672904E-1,-4.187439568E-3
4.817061932E0,9.660423279E0,3.864408433E-1,-4.785645381E-2
4.836522348E0,9.711270332E0,3.397808075E-1,-1.124626622E-1
4.855982765E0,9.853045464E0,3.266202807E-1,-1.328016520E-1
4.875443182E0,9.876375198E0,3.529413342E-1,-1.064806059E-1
4.894903598E0,9.853045464E0,3.678964674E-1,-8.374879509E-2
4.914364015E0,9.831509590E0,3.517449200E-1,-1.429711580E-1
4.933824432E0,9.839286804E0,4.175475538E-1,-1.411765367E-1
4.953284744E0,9.888937950E0,5.120640397E-1,-1.226321608E-1
4.972745161E0,9.903892517E0,5.886343718E-1,-2.931207791E-2
4.992205577E0,9.803394318E0,5.294120312E-1,3.230310604E-2
5.011665994E0,9.668798447E0,4.348955154E-1,9.690931439E-2
5.031126411E0,9.656833649E0,3.846462369E-1,1.351944804E-1
5.050586827E0,9.777072906E0,3.792623878E-1,2.207378894E-1
5.070047140E0,9.955338478E0,3.385843933E-1,2.979064286E-1
5.089507557E0,1.001456070E1,2.632105052E-1,3.445664644E-1
5.108967973E0,9.985248566E0,2.141576260E-1,3.643072546E-1
5.128428390E0,9.987641335E0,2.225325108E-1,3.672982752E-1
5.147888807E0,1.002712345E1,2.841476798E-1,4.043870270E-1
5.167349223E0,1.015513897E1,3.559323549E-1,3.972085714E-1
5.186809640E0,1.019521904E1,4.043870270E-1,2.811566591E-1
5.206270057E0,1.003430176E1,4.163511395E-1,2.045863420E-1
5.225730369E0,9.802198410E0,4.372883439E-1,2.626122832E-1
5.245190786E0,9.701101303E0,4.277170599E-1,4.055834413E-1
5.264651202E0,9.773484230E0,3.613162339E-1,5.198407173E-1
5.284111619E0,1.000020409E1,2.859423161E-1,5.826523304E-1
5.303572036E0,1.014796066E1,3.008974493E-1,5.443671346E-1
5.323032452E0,1.022512913E1,3.290131092E-1,3.846462369E-1
5.342492869E0,1.017069244E1,3.876372576E-1,2.039881349E-1
5.361953182E0,1.000678444E1,4.516452849E-1,2.799602449E-1
5.381413598E0,9.815957069E0,4.642075896E-1,4.109672904E-1
5.400874015E0,9.766903877E0,4.642075896E-1,4.947160780E-1
5.420334432E0,9.842277527E0,3.954139352E-1,5.485545993E-1
5.439794848E0,9.909276962E0,3.702892959E-1,5.270192027E-1
5.459255265E0,9.962516785E0,3.756731451E-1,3.684946895E-1
5.478715682E0,1.005643559E1,3.607180119E-1,2.039881349E-1
5.498175994E0,1.012164021E1,3.864408433E-1,2.087737769E-1
5.517636411E0,1.002114105E1,3.930211067E-1,4.689932466E-1
5.537096827E0,9.824930191E0,2.458625287E-1,6.358926296E-1
5.556557244E0,9.742975235E0,1.268195957E-1,5.904290080E-1
5.576017661E0,9.803394318E0,2.225325108E-1,4.965106845E-1
5.595478077E0,9.959526062E0,4.181457460E-1,3.948157430E-1
5.614938390E0,1.007797050E1,5.736792088E-1,3.337987661E-1
5.634398807E0,1.009412193E1,6.478567123E-1,4.247260094E-1
5.653859223E0,1.005643559E1,4.881358147E-1,4.354937077E-1
5.673319640E0,9.929018021E0,3.690928817E-1,4.851447940E-1
5.692780057E0,9.923633575E0,3.032902777E-1,5.964110494E-1
5.712240473E0,9.865009308E0,2.901297510E-1,7.908278704E-1
5.731700890E0,9.847063065E0,2.225325108E-1,8.069794178E-1
5.751161307E0,9.734601021E0,1.597209126E-1,8.530412912E-1
5.770621619E0,9.689137459E0,1.148554832E-1,8.644071817E-1
5.790082036E0,9.615557671E0,2.422732860E-1,1.065404296E0
5.809542452E0,9.615557671E0,3.840480447E-1,1.217348576E0
5.829002869E0,9.653244972E0,4.049852192E-1,1.207179070E0
5.848463286E0,9.591629982E0,2.727817893E-1,1.221535921E0
5.867923702E0,9.505488396E0,1.603191197E-1,1.225723386E0
5.887384119E0,9.458827972E0,1.651047617E-1,1.289133191E0
5.906844432E0,9.438488960E0,2.925225794E-1,1.398006678E0
5.926304848E0,9.504889488E0,2.955136001E-1,1.377069473E0
5.945765265E0,9.642477036E0,2.422732860E-1,1.242473125E0
5.965225682E0,9.854242325E0,2.213360965E-1,1.121635556E0
5.984686098E0,9.982855797E0,2.931207716E-1,1.000199914E0
6.004146515E0,9.940383911E0,3.589234054E-1,9.487541914E-1
6.023606932E0,9.851250648E0,2.679961324E-1,8.853443861E-1
6.043067244E0,9.861420631E0,1.651047617E-1,7.770691514E-1
6.062527661E0,9.891330719E0,1.728814393E-1,7.591229677E-1
6.081988077E0,9.791430473E0,1.926222295E-1,9.816554785E-1
6.101448494E0,9.671191216E0,1.310070455E-1,1.208973646E0
6.120908911E0,9.705288887E0,-2.392822644E-3,1.336989641E0
6.140369327E0,9.827920914E0,-5.084748194E-2,1.287936807E0
6.159829744E0,9.906884193E0,-2.333002165E-2,1.185045362E0
6.179290057E0,9.997213364E0,1.106680483E-1,1.139581800E0
6.198750473E0,1.000678444E1,2.398804724E-1,1.214357495E0
6.218210890E0,9.909276962E0,2.338984162E-1,1.298106313E0
6.237671307E0,9.855438232E0,1.375873089E-1,1.188036442E0
6.257131723E0,1.002652550E1,1.280160099E-1,1.014556766E0
6.276592140E0,1.026161957E1,1.956132501E-1,8.691928387E-1
6.296052452E0,1.018325520E1,3.134597540E-1,7.034898400E-1
6.315512869E0,9.862018585E0,2.787638307E-1,5.874379873E-1
6.334973286E0,9.663414001E0,2.524427772E-1,6.598208547E-1
6.354433702E0,9.668199539E0,3.589234054E-1,9.266205430E-1
6.373894119E0,9.694520950E0,5.282155871E-1,1.134796143E0
6.393354536E0,9.692726135E0,6.203392744E-1,1.143171072E0
6.412814848E0,9.644271851E0,6.520441771E-1,1.021735311E0
6.432275265E0,9.603593826E0,7.046862841E-1,9.391828775E-1
6.451735682E0,9.549157143E0,6.777670383E-1,1.110269666E0
6.471196098E0,9.495318413E0,5.988038778E-1,1.274776220E0
6.490656515E0,9.513862610E0,6.077769399E-1,1.367498159E0
6.510116932E0,9.569496155E0,7.423732281E-1,1.316052437E0
6.529577348E0,9.643074989E0,9.140582681E-1,1.152742267E0
6.549037661E0,9.521639824E0,1.042074203E0,1.142572761E0
6.568498077E0,9.283554077E0,1.060020447E0,1.253839016E0
6.587958494E0,9.080761909E0,1.174277663E0,1.348355532E0
6.607418911E0,9.030512810E0,1.425524116E0,1.322034478E0
6.626879327E0,8.956335068E0,1.397408366E0,1.308874011E0
6.646339744E0,8.970691681E0,1.078564763E0,1.063609719E0
6.665800057E0,9.069396019E0,6.358926296E-1,8.303094506E-1
6.685260473E0,9.245268822E0,4.025924206E-1,3.978067636E-1
6.704720890E0,9.680164337E0,4.564309120E-1,-1.645065546E-1
6.724181307E0,1.048415279E1,8.237292171E-1,-7.399803996E-1
6.743641723E0,1.119900799E1,1.275374413E0,-1.084546804E0
6.763102140E0,1.145145130E1,1.415952802E0,-1.086939692E0
6.782562452E0,1.111585712E1,1.674975872E0,-1.100100160E0
6.802022869E0,1.058584690E1,1.536192179E0,-1.030708313E0
6.821483286E0,1.001336479E1,1.576870084E0,-8.578268886E-1
6.840943702E0,9.818947792E0,1.503290772E0,-8.075776696E-1
6.860404119E0,1.007737255E1,1.331007600E0,-8.703892231E-1
6.879864432E0,1.024008465E1,1.238883972E0,-9.690931439E-1
6.899324848E0,1.027059269E1,1.211366415E0,-9.631111026E-1
6.918785265E0,1.019880867E1,1.302891970E0,-7.842476368E-1
6.938245682E0,1.004925728E1,1.370489120E0,-5.778666735E-1
6.957706098E0,9.728020668E0,1.302891970E0,-3.816552162E-1
6.977166411E0,9.298508644E0,1.206580877E0,-3.170489967E-1
6.996626827E0,8.844470978E0,1.133599758E0,-2.913261652E-1
7.016087244E0,8.513064384E0,1.082752228E0,-2.374876440E-1
7.035547661E0,8.387441635E0,1.144367456E0,-8.494520187E-2
7.055008077E0,8.524430275E0,1.246062398E0,1.435693540E-2
7.074468390E0,8.989236832E0,1.395613790E0,-1.220339537E-1
7.093928807E0,9.763314247E0,1.429711580E0,-3.475574851E-1
7.113389223E0,1.081436157E1,1.585245013E0,-5.138586760E-1
7.132849640E0,1.164407349E1,1.779063582E0,-7.148557901E-1
7.152310057E0,1.182174015E1,1.683350682E0,-9.320043921E-1
7.171770369E0,1.107039356E1,1.475773335E0,-8.309076428E-1
7.191230786E0,1.008814049E1,1.191625714E0,-5.641079545E-1
7.210691202E0,9.183652878E0,8.733802438E-1,-1.830509305E-1
7.230151619E0,8.529216766E0,5.802595019E-1,2.901297510E-1
7.249612036E0,8.352147102E0,4.283152521E-1,4.229314029E-1
7.269072348E0,8.696115494E0,4.127618968E-1,2.123630047E-1
7.288532765E0,9.302098274E0,4.504488707E-1,-1.836491376E-1
7.307993182E0,9.903294563E0,4.965106845E-1,-6.245267391E-1
7.327453598E0,1.038544846E1,6.927221417E-1,-9.990034699E-1
7.346914015E0,1.053978539E1,9.248259664E-1,-1.092921734E0
7.366374327E0,1.036690426E1,8.835497499E-1,-9.433703423E-1
7.385834744E0,9.943374634E0,7.106683254E-1,-5.856433511E-1
7.405295161E0,9.389435768E0,5.347958803E-1,-3.714857101E-1
7.424755577E0,9.079565048E0,3.696911037E-1,-3.888336718E-1
7.444215994E0,8.995218277E0,2.955136001E-1,-4.001995921E-1
7.463676307E0,9.071190834E0,4.175475538E-1,-4.271188378E-1
7.483136723E0,9.422337532E0,5.976074338E-1,-5.659025311E-1
7.502597140E0,9.538389206E0,6.909275651E-1,-7.298108935E-1
7.522057557E0,9.559326172E0,4.630111754E-1,-8.727820516E-1
7.541517973E0,9.501300812E0,2.338984162E-1,-9.469595551E-1
7.560978286E0,9.517452240E0,2.279163599E-1,-9.218349457E-1
7.580438702E0,9.210572243E0,3.708875179E-1,-1.085743308E0
7.599899119E0,8.995817184E0,6.855437160E-1,-1.290329576E0
7.619359536E0,8.645268440E0,9.116654396E-1,-1.634297848E0
7.638819848E0,8.415556908E0,7.794619799E-1,-1.766501307E0
7.658280265E0,8.398807526E0,6.155536175E-1,-1.722832322E0
7.677740682E0,8.059624672E0,2.344966233E-1,-1.456630826E0
7.697201098E0,7.630711555E0,-7.716853172E-2,-1.042672515E0
7.716661515E0,6.872784615E0,4.426721856E-2,-5.455635786E-1
7.736121827E0,5.994020939E0,5.718846321E-1,-2.554338276E-1
7.755582244E0,5.740979671E0,9.308080077E-1,-3.517449200E-1
7.775042661E0,6.770491600E0,1.042672515E0,-1.052243710E0
7.794503077E0,8.680562019E0,1.438684583E0,-1.776072621E0
7.813963494E0,1.126840019E1,2.352144718E0,-2.365903378E0
7.833423807E0,1.552463341E1,3.460021496E0,-2.663211584E0
7.852884223E0,2.320140648E1,4.173680782E0,-2.794816732E0
7.872344640E0,3.448176956E1,2.231905222E0,-3.940380573E0
7.891805057E0,3.676751328E1,-1.919043779E0,-4.022335052E0
7.911265473E0,2.590948296E1,-2.324627161E0,-3.687937975E0
7.930725786E0,1.810708809E1,-1.323829174E0,-4.105485439E0
7.950186202E0,1.266879940E1,-2.404786795E-1,-4.247260094E0
7.969646619E0,8.676973343E0,5.479564071E-1,-4.369892120E0
7.989107036E0,5.534000397E0,9.421738982E-1,-3.894917011E0
8.008567348E0,3.442673683E0,1.116850019E0,-2.848057270E0
8.028027765E0,2.044068813E0,8.069794178E-1,-1.569093466E0
8.047488182E0,-1.058823988E-1,7.477571070E-2,9.631111473E-2
8.066948598E0,-3.814757586E0,-7.345965505E-1,1.162313581E0
8.086408911E0,-7.296912670E0,-9.613165259E-1,1.848455518E-1
8.105869327E0,-8.498707771E0,-7.064808607E-1,-1.159920812E0
8.125329744E0,-8.480163574E0,-4.695914388E-1,-1.426720500E0
8.144790161E0,-6.365506649E0,-3.457628787E-1,-1.115653515E0
8.164250473E0,-3.388834953E0,-2.482553422E-1,-1.236491084E0
8.183710890E0,-3.020938635E-1,5.503492057E-2,-1.722234130E0
8.203171307E0,2.525624275E0,3.954139352E-1,-2.883949518E0
8.222631619E0,6.157928944E0,4.767699242E-1,-3.199802160E0
8.242092036E0,1.122772217E1,3.068794906E-1,-2.942573547E0
8.261552452E0,2.647598457E1,-7.351947427E-1,-5.995217323E0
8.281012869E0,4.828357315E1,5.383851007E-2,-1.411765367E-1
8.300473286E0,4.671088791E1,4.682155609E0,1.143769264E0
8.319933598E0,3.422633743E1,3.542573929E0,-7.185048103E0
8.339394015E0,2.113340950E1,-1.588834286E0,-6.646064758E0
8.358854432E0,1.422832203E1,-2.892324448E0,-3.805784464E0
8.378314848E0,8.983852386E0,-1.704287887E0,-1.606182218E0
8.397775161E0,5.426323414E0,-6.065805554E-1,-2.333002165E-2
8.417235577E0,2.746960402E0,1.244267747E-1,3.014956415E-1
8.436695994E0,2.147558331E-1,5.114658475E-1,4.396811724E-1
8.456156411E0,-1.668993831E0,4.420739710E-1,3.924229145E-1
8.475616723E0,-3.975076675E0,8.973085135E-2,-2.213360965E-1
8.495077140E0,-6.135795593E0,-2.901297510E-1,-1.281954765E0
8.514537557E0,-7.555337429E0,-4.055834413E-1,-1.529013634E0
8.533997869E0,-7.791030407E0,-3.134597540E-1,-1.105484009E0
8.553458286E0,-6.346961975E0,-1.704886109E-1,-1.124626637E0
8.572918702E0,-4.223930359E0,-1.657029688E-1,-1.060020447E0
8.592379119E0,-1.255035520E0,-1.627119333E-1,-1.110269666E0
8.611839432E0,1.940579176E0,-3.744767308E-1,-1.607976794E0
8.631299848E0,6.577869415E0,4.301098585E-1,-1.774876237E0
8.650760265E0,1.348355579E1,1.932204247E0,-2.355733871E0
8.670220682E0,2.973859787E1,3.740580082E0,-6.221338749E0
8.689680994E0,4.493840408E1,2.241476536E0,-6.957729816E0
8.709141411E0,4.772066116E1,3.065804005E0,-1.023649502E1
8.728601827E0,3.924528122E1,2.982653379E0,-1.171406364E1
8.748062244E0,2.801576614E1,-1.306481123E0,-6.664011002E0
8.767522557E0,1.928495407E1,-9.026923180E-1,-2.951546669E0
8.786982973E0,1.409671593E1,5.234299302E-1,-1.363310695E0
8.806443390E0,9.789635658E0,9.284151793E-1,-1.379462242E0
8.825903807E0,6.157330990E0,1.171884894E0,-1.561915040E0
8.845364119E0,3.625724554E0,1.141376376E0,-1.430907965E0
8.864824536E0,9.122636318E-1,9.014959335E-1,-9.367900491E-1
8.884284952E0,-1.850250125E0,5.539384484E-1,-6.448656917E-1
8.903745369E0,-5.021936417E0,-2.147558331E-1,-9.343972206E-1
8.923205682E0,-8.018946648E0,-1.635494232E0,-1.709073544E0
8.942666098E0,-1.014437199E1,-2.365903378E0,-1.533799291E0
8.962126515E0,-9.683155060E0,-2.753540754E0,-1.546959877E0
8.981586827E0,-5.843871117E0,-2.606382132E0,-1.012762189E0
9.001047244E0,-6.634100676E-1,-1.395613790E0,-4.486542344E-1
9.020507661E0,2.998805046E0,-3.708875179E-2,-6.269195080E-1
9.039968077E0,4.935794830E0,5.132604837E-1,-2.416750908E0
9.059428390E0,5.443073273E0,9.487541914E-1,-4.437489510E0
9.078888807E0,5.991029739E0,1.314856052E0,-4.702494621E0
9.098349223E0,7.484749317E0,1.296311617E0,-4.329812527E0
9.117809536E0,1.097587776E1,2.088335991E0,-6.573681831E0
9.137269952E0,2.228555298E1,2.867199659E0,-6.899703979E0
9.156730369E0,4.760102081E1,2.868994236E0,-5.730810165E-1
9.176190786E0,5.731587982E1,-1.256231815E-1,-5.596213818E0
9.195651098E0,3.736153412E1,-5.826523304E0,-1.213998604E1
9.215111515E0,2.120579338E1,-7.301100254E0,-8.644669533E0
9.234571932E0,1.243310642E1,-5.672185898E0,-4.704887390E0
9.254032348E0,1.093819046E1,-1.971685886E0,-3.514458179E0
9.273492661E0,9.404989243E0,6.227321029E-1,-3.211168051E0
9.292953077E0,6.617949009E0,1.273579836E0,-2.861815929E0
9.312413494E0,3.872783422E0,1.057029366E0,-2.521436930E0
9.331873807E0,1.860419661E-1,6.287141442E-1,-2.434697002E-1
9.351334223E0,-5.865406513E0,3.176472187E-1,2.258226395E0
9.370794640E0,-9.455238342E0,4.426721931E-1,1.722832322E0
9.390255057E0,-9.878170013E0,9.409775138E-1,8.733802438E-1
9.409715369E0,-9.767501831E0,5.431707501E-1,6.640082598E-1
9.429175786E0,-6.917650223E0,-6.460621208E-2,-3.170489967E-1
9.448636202E0,-3.753142357E0,-3.044866920E-1,-1.186241865E0
9.468096515E0,-5.982056856E-1,-6.436693072E-1,-1.617548108E0
9.487556932E0,1.600200176E0,-1.068395257E0,-1.931606054E0
9.507017348E0,3.390629768E0,-1.156929731E0,-2.464009047E0
9.526477765E0,5.771488190E0,-3.894318938E-1,-3.741178274E0
9.545938077E0,9.915857315E0,6.807580590E-1,-5.791827202E0
9.565398494E0,2.084088707E1,2.401795626E0,-6.165107727E0
9.584858911E0,4.693103027E1,5.451447964E0,-3.535993576E0
9.604319327E0,6.197709656E1,-2.598605394E0,-1.278365517E1
9.623779640E0,3.482274628E1,-6.119045734E0,-9.658030510E0
9.643240057E0,2.141935158E1,-6.199803352E0,-6.699305058E0
9.662700473E0,1.432941818E1,-4.399204254E0,-4.429712772E0
9.682160786E0,1.048295593E1,-1.538584948E0,-1.532004714E0
9.701621202E0,6.666403770E0,-1.435693540E-2,-5.353940725E-1
9.721081619E0,3.708875179E0,9.349954724E-1,-5.138586760E-1
9.740542036E0,1.457229018E0,1.415952802E0,-7.704889178E-1
9.760002348E0,-1.369292736E0,1.890329838E0,-5.312066078E-1
9.779462765E0,-5.137988567E0,1.889731646E0,-1.555334777E-1
9.798923182E0,-7.321439266E0,1.007378340E0,-1.098305583E0
9.818383494E0,-7.575078487E0,3.320041299E-1,-1.926222205E0
9.837843911E0,-7.120441914E0,1.651047617E-1,-1.979462504E0
9.857304327E0,-6.903293133E0,2.973082066E-1,-1.678565025E0
9.876764640E0,-5.060820103E0,1.316052526E-1,-1.132403374E0
9.896225057E0,-8.153542876E-1,1.495514158E-2,-1.301097274E0
9.915685473E0,2.691327333E0,-1.668993831E-1,-1.788036704E0
9.935145786E0,6.583253384E0,3.667000830E-1,-1.821536183E0
9.954606202E0,9.975079536E0,1.369890928E0,-1.847259045E0
9.974066619E0,1.678505325E1,1.911865234E0,-3.407379389E0
9.993527036E0,3.444169235E1,3.648456335E0,-5.459224701E0
1.001298735E1,5.663990784E1,6.173482537E-1,-3.596412420E0
1.003244776E1,4.601039124E1,-4.694119930E0,-8.429315567E0
1.005190818E1,2.390250397E1,-2.453839540E0,-7.322037220E0
1.007136849E1,1.677727509E1,-2.600399971E0,-3.308675528E0
1.009082891E1,1.314676571E1,-1.541576028E0,-2.172683001E0
1.011028933E1,9.832108498E0,-9.930213690E-1,-1.683350682E0
1.012974964E1,6.237490654E0,-7.890332937E-1,-1.482951880E0
1.014921006E1,3.190829039E0,-8.715856671E-1,-1.583450437E0
1.016867047E1,7.573283911E-1,-1.368096352E0,-1.207179070E0
1.018813079E1,-2.747558594E0,-2.023729801E0,-4.785645381E-2
1.020759120E1,-7.321439266E0,-2.047657967E0,-4.965107143E-2
1.022705162E1,-9.579665184E0,-2.697907388E-1,-9.302098155E-1
1.024651204E1,-1.017547798E1,1.517049551E0,-1.134796143E0
1.026597235E1,-8.717052460E0,1.414158225E0,-1.055234790E0
1.028543277E1,-5.729613781E0,1.292124271E0,-1.302891970E0
1.030489318E1,-2.756531715E0,1.445863128E0,-9.780662656E-1
1.032435349E1,-2.350948304E-1,1.003190875E0,-7.722834945E-1
1.034381391E1,2.514258385E0,3.918247223E-1,-1.384846091E0
1.036327433E1,6.908079147E0,8.309076428E-1,-1.564906001E0
1.038273464E1,1.660200119E1,1.148554921E0,-3.081357241E0
1.040219506E1,4.495096970E1,2.301895380E0,-4.480560303E0
1.042165547E1,6.677291107E1,-3.433700562E0,-8.661419868E0
1.044111579E1,3.984767532E1,-3.477369547E0,-1.462433338E1
1.046057620E1,2.311526489E1,-6.640082598E-2,-8.256434441E0
1.048003662E1,1.554437447E1,-7.686942816E-1,-3.377469063E0
1.049949704E1,1.291526031E1,-1.691725612E0,-2.551945448E0
1.051895735E1,1.069830990E1,-2.626721144E0,-1.524826288E0
1.053841776E1,8.210970879E0,-2.455634356E0,-1.141974568E0
1.055787818E1,5.113461971E0,-1.342971683E0,-1.182054400E0
1.057733849E1,1.133001566E0,-2.991028363E-3,5.204389095E-1
1.059679891E1,-4.015754700E0,9.397810698E-1,2.182254314E0
1.061625933E1,-7.801199913E0,1.594816327E0,6.263213158E-1
1.063571964E1,-8.023732185E0,1.769492388E0,-1.866999865E0
1.065518006E1,-7.987242222E0,9.924231768E-1,-2.007578135E0
1.067464047E1,-6.707680225E0,1.734796353E-2,-8.291130662E-1
1.069410079E1,-6.558726788E0,-1.860419661E-1,-7.100701332E-1
1.071356120E1,-5.040481091E0,1.501496136E-1,-1.461416483E0
1.073302162E1,-5.192425251E-1,-1.405783296E-1,-2.221137524E0
1.075248193E1,2.414358139E0,-8.703892231E-1,-3.717848301E0
1.077194235E1,4.089931965E0,-3.888336718E-1,-4.470989227E0
1.079140276E1,7.231110096E0,-2.368894368E-1,-2.368894339E0
1.081086308E1,1.129232788E1,-1.190429211E0,-1.671386600E0
1.083032349E1,2.304347992E1,-3.535395563E-1,-8.810373306E0
1.084978391E1,5.660281754E1,-1.603191197E-1,-4.816751957E0
1.086924433E1,6.222714615E1,-1.026700401E1,-6.957131863E0
1.088870464E1,3.769952011E1,-7.148557663E0,-9.402596474E0
1.090816506E1,2.172084808E1,-2.572284341E-1,-4.583451748E0
1.092762547E1,1.555514145E1,2.398206472E0,-2.794218540E0
1.094708579E1,1.207896900E1,1.895115495E0,-1.865803480E0
1.096654620E1,7.683951855E0,9.553344250E-1,-2.800798893E0
1.098600662E1,4.832903385E0,-1.764706671E-1,-4.813760757E0
1.100546693E1,2.768495798E0,-9.391828775E-1,-6.102894306E0
1.102492735E1,-2.255833626E0,-1.433300734E0,-3.455235958E0
1.104438777E1,-7.808378696E0,-1.439282775E0,5.252245665E-1
1.106384808E1,-1.028195858E1,-6.789634228E-1,-1.854437590E-2
1.108330849E1,-1.141436195E1,1.519442320E0,-4.785645287E-3
1.110276891E1,-1.219262791E1,2.145763636E0,9.463613629E-1
1.112222922E1,-7.659425259E0,7.531409264E-1,1.519442350E-1
1.114168964E1,-3.579662561E0,-5.515456200E-1,-1.102493048E0
1.116115006E1,-7.932206988E-1,-1.412363529E0,-1.612762451E0
1.118061037E1,8.853443712E-2,-1.951945066E0,-2.364108801E0
1.120007079E1,2.393420935E0,-1.490130305E0,-3.150749207E0
1.121953120E1,6.471388817E0,4.199403822E-1,-3.478565931E0
1.123899152E1,1.573280907E1,1.565504193E0,-2.437688112E0
1.125845193E1,3.729094315E1,4.357928276E0,2.167897224E0
1.127791235E1,5.933123398E1,2.860021353E0,-2.884547710E0
1.129737266E1,4.933641434E1,-6.546164513E0,-1.334955788E1
1.131683308E1,2.338146591E1,-5.751747608E0,-1.189531994E1
1.133629349E1,1.808256149E1,-3.588635683E0,-7.217949390E0
1.135575381E1,1.279083347E1,-1.279561877E0,-2.280958176E0
1.137521422E1,8.668000221E0,5.449653864E-1,2.021337032E0
1.139467464E1,5.591428280E0,1.431506157E0,2.702693224E0
1.141413495E1,2.493919373E0,1.241874933E0,2.326421738E0
1.143359537E1,-9.649057388E-1,9.792626500E-1,2.078166485E0
1.145305579E1,-4.802394867E0,9.062815905E-1,1.844268084E0
1.147251610E1,-6.238088608E0,3.780659735E-1,-3.960121572E-1
1.149197652E1,-6.904489517E0,-1.896311939E-1,-2.913859844E0
1.151143693E1,-7.833503246E0,-7.136593461E-1,-3.452244759E0
1.153089724E1,-8.109873772E0,-9.577272534E-1,-2.848655462E0
1.155035766E1,-7.613961697E0,-1.109671474E0,-2.770888567E0
1.156981808E1,-4.795216560E0,-1.536192179E0,-3.089133978E0
1.158927839E1,-6.664010882E-1,-1.284945726E0,-3.608376503E0
1.160873881E1,3.778266907E0,-3.212364316E-1,-3.440878868E0
1.162819922E1,9.790832520E0,5.377869010E-1,-1.856232166E0
1.164765954E1,1.937049675E1,1.723430514E0,-4.426123619E0
1.166711995E1,4.024727631E1,3.059821844E0,2.779263496E0
1.168658037E1,5.428118134E1,5.294120312E-1,-9.084949493E0
1.170604068E1,5.445884705E1,-6.951747894E0,-2.141815567E1
1.172550110E1,2.643111801E1,-4.063013077E0,-1.538226032E1
1.174496152E1,1.523629856E1,2.805584669E-1,-7.103692055E0
1.176442183E1,1.043330479E1,1.155733347E0,-1.907079697E0
1.178388224E1,8.377870560E0,-3.349951655E-2,-7.052844763E-1
1.180334256E1,6.728617191E0,-1.381256819E0,-1.587637782E0
1.182280297E1,5.143970490E0,-2.352742910E0,-2.313261271E0
1.184226339E1,2.427518606E0,-2.382055044E0,-2.458625317E0
1.186172381E1,-2.088934183E0,-1.500299811E0,-1.944168359E-1
1.188118412E1,-7.779066563E0,-3.224328458E-1,2.039881229E0
1.190064454E1,-1.004985523E1,9.218349457E-1,-9.092725813E-2
1.192010485E1,-1.097707367E1,2.262413740E0,-5.060819983E-1
1.193956526E1,-9.933803558E0,2.188834429E0,-2.069791555E-1
1.195902568E1,-6.267400742E0,1.341775298E0,-9.720842242E-1
1.197848599E1,-2.534597397E0,7.046862841E-1,-2.201396942E0
1.199794641E1,4.809573591E-1,3.649054468E-2,-2.711666346E0
1.201740683E1,3.645465374E0,-8.416753411E-1,-2.486740828E0
1.203686714E1,7.706683636E0,-1.228714466E0,-1.499701619E0
1.205632756E1,1.248634720E1,-1.045663476E0,-2.094916344E0
1.207578797E1,2.188655090E1,-4.815555513E-1,-4.557728767E0
1.209524829E1,4.469912338E1,-8.267202377E-1,1.511067510E0
1.211470870E1,6.023871231E1,-3.605385542E0,-1.091785145E1
1.213416912E1,3.623690796E1,-3.474976778E0,-1.092323494E1
1.215362943E1,2.170708847E1,-3.407977581E0,-8.791828156E0
1.217308985E1,1.499282837E1,-3.032902718E0,-5.093721390E0
1.219255027E1,1.149272728E1,-2.321636200E0,-2.141576290E0
1.221201058E1,7.586444378E0,-1.741376638E0,-8.805587292E-1
1.223147099E1,4.362115860E0,-5.784648657E-1,-6.502495408E-1
1.225093141E1,1.873580098E0,5.515456200E-1,-1.033101201E0
1.227039172E1,-1.099501967E0,1.183250785E0,-9.032905698E-1
1.228985214E1,-4.390231133E0,1.375872970E0,-2.063809484E-1
1.230931256E1,-7.069594383E0,1.259821177E0,-5.790630579E-1
1.232877287E1,-7.521239758E0,5.210371017E-1,-1.564906001E0
1.234823329E1,-8.464012146E0,-3.140579760E-1,-1.472782373E0
1.236769360E1,-8.823533058E0,-9.900303483E-1,-1.114457130E0
1.238715402E1,-6.549753666E0,-1.576870084E0,-1.044467092E0
1.240661443E1,-2.680559635E0,-1.784447432E0,-1.396810174E0
1.242607474E1,1.520638824E0,-1.611566067E0,-2.698505640E0
1.244553516E1,6.666403770E0,-6.502495408E-1,-3.795614958E0
1.246499558E1,1.011147022E1,7.932206988E-1,-2.556132793E0
1.248445589E1,1.548933887E1,2.046461582E0,-2.572882652E0
1.250391631E1,2.193380928E1,2.237887383E0,-6.367300987E0
1.252337672E1,3.433939743E1,3.978665829E0,-6.590431690E0
1.254283704E1,4.181038666E1,-5.335994363E-1,-3.290131092E0
1.256229745E1,3.515834045E1,-6.432505608E0,-7.662416458E0
1.258175776E1,2.561696053E1,-6.251249313E0,-8.379665375E0
1.260121818E1,2.172323990E1,-3.623331785E0,-5.132006168E0
1.262067860E1,1.772902107E1,5.144568682E-1,-3.075973511E0
1.264013891E1,1.299003601E1,1.939382792E0,-2.490330219E0
1.265959933E1,9.014361382E0,1.572682738E0,-2.429911375E0
1.267905974E1,6.135197163E0,5.539384484E-1,-2.358126640E0
1.269852006E1,4.256233215E0,-4.408775866E-1,-2.958725214E0
1.271798047E1,2.762513638E0,-9.529415965E-1,-4.594219685E0
1.273744089E1,-9.900303483E-1,-9.266205430E-1,-4.000201225E0
1.275690120E1,-6.623332977E0,-1.067797065E0,-6.562315822E-1
1.277636162E1,-9.248857498E0,-5.647061467E-1,-1.740778536E-1
1.279582204E1,-9.727422714E0,1.314856052E0,2.213360965E-1
1.281528235E1,-8.747561455E0,1.837089539E0,3.768695593E-1
1.283474277E1,-5.858228207E0,1.093519926E0,4.887340367E-1
1.285420318E1,-2.545963287E0,2.273181453E-2,4.384847581E-1
1.287366349E1,-5.126622319E-1,-1.138983607E0,-2.452643216E-1
1.289312391E1,1.709073544E0,-1.646261930E0,-1.794616938E0
1.291258422E1,5.180460930E0,-1.672582984E0,-1.947757602E0
1.293204464E1,1.100339508E1,-1.403390527E0,-3.147160053E0
1.295150506E1,2.639582443E1,1.116251707E0,-5.680561066E0
1.297096537E1,5.622415543E1,2.338385820E0,-7.310671329E0
1.299042579E1,5.625346756E1,-2.370090723E0,-1.724447441E1
1.300988620E1,3.151108170E1,-2.288734913E0,-1.579801369E1
1.302934652E1,2.080379868E1,-3.573680639E0,-8.395816803E0
1.304880693E1,1.353081417E1,-3.869792461E0,-3.594019651E0
1.306826724E1,9.396016121E0,-2.305484533E0,-9.499505758E-1
1.308772766E1,5.849853039E0,-1.482353687E0,7.998009920E-1
1.310718808E1,2.333002090E0,-6.442674994E-1,2.023729801E0
1.312664839E1,-9.631111026E-1,5.491527915E-1,3.177070379E0
1.314610881E1,-4.689932346E0,1.314257860E0,2.414956331E0
1.316556922E1,-6.586842537E0,1.650449395E0,-1.658226132E0
1.318502954E1,-7.574480057E0,1.887338877E0,-3.982254982E0
1.320448995E1,-8.344370842E0,1.039083242E0,-3.999603033E0
1.322395037E1,-8.798408508E0,1.381855011E-1,-2.615953445E0
1.324341068E1,-5.788836002E0,-3.726821244E-1,-1.445264935E0
1.326287110E1,-1.403390527E0,-9.110672474E-1,-3.529413417E-2
1.328233141E1,1.824527264E0,-1.231107235E0,9.661021233E-1
1.330179183E1,3.777668715E0,-5.982056856E-1,1.195813060E0
1.332125224E1,4.993820667E0,1.908276081E-1,-1.615155339E-1
1.334071256E1,6.940382004E0,6.077769399E-1,-1.977667928E0
1.336017297E1,1.130848026E1,1.097707391E0,-4.480560303E0
1.337963339E1,2.417887497E1,2.527418852E0,-8.356334686E0
1.339909370E1,5.770052338E1,2.922832966E0,-6.424130440E0
1.341855412E1,5.542734528E1,-4.931607246E0,-1.171585751E1
1.343801454E1,3.134717369E1,-4.383052826E0,-8.861220360E0
1.345747485E1,2.202234268E1,-3.891926050E0,-5.933003902E0
1.347693527E1,1.826740646E1,-2.516651154E0,-5.386243820E0
1.349639558E1,1.373240948E1,-4.588237405E-1,-3.388236761E0
1.351585599E1,8.897112846E0,8.973085321E-3,-1.735394597E0
1.353531641E1,5.465207100E0,-1.770688742E-1,-9.643075466E-1
1.355477672E1,3.007778168E0,-7.956135273E-2,-5.318048596E-1
1.357423714E1,1.022931695E0,-1.686939895E-1,-4.211367965E-1
1.359369756E1,-1.307079315E0,-3.487538993E-1,-1.026520967E0
1.361315787E1,-6.460621357E0,2.667997181E-1,-9.696913958E-1
1.363261829E1,-1.119123173E1,1.767099500E0,-1.794617027E-1
1.365207860E1,-1.285185051E1,2.493919373E0,6.101697683E-2
1.367153902E1,-9.756135941E0,1.906481385E0,-1.232303679E-1
1.369099943E1,-5.411966801E0,1.496112347E0,-8.632107973E-1
1.371045974E1,-2.011765718E0,4.354937077E-1,-1.581057549E0
1.372992016E1,7.316055298E-1,-9.894321561E-1,-2.572284460E0
1.374938047E1,2.522035122E0,-1.977667928E0,-3.882952929E0
1.376884089E1,4.518247128E0,-2.251646042E0,-2.563311338E0
1.378830131E1,7.929215908E0,-2.084746838E0,-2.684148788E0
1.380776162E1,1.280100250E1,-2.097907305E0,-5.724229813E0
1.382722204E1,2.409751892E1,-1.700698733E0,-6.866204739E0
1.384668235E1,4.985864639E1,7.956135273E-1,-1.157527924E0
1.386614277E1,5.778128433E1,-2.805584669E-1,-1.491326714E1
1.388560318E1,3.490111160E1,-1.112662554E0,-1.477627850E1
1.390506349E1,2.129971123E1,-2.596212626E0,-1.024905777E1
1.392452391E1,1.515613842E1,-4.279563427E0,-6.261418819E0
1.394398433E1,1.142034435E1,-3.938585997E0,-2.664407969E0
1.396344464E1,8.204390526E0,-2.354537487E0,-1.820339799E0
1.398290506E1,5.257629395E0,-6.939185858E-1,-1.746162295E0
1.400236547E1,2.044667006E0,2.057827413E-1,-1.746760488E0
1.402182579E1,-1.721037745E0,9.302098155E-1,-7.375875711E-1
1.404128620E1,-5.872584820E0,1.010369420E0,1.185643673E0
1.406074652E1,-9.195018768E0,8.087740541E-1,2.632104978E-2
1.408020693E1,-9.918848038E0,1.208973646E0,-1.008574724E0
1.409966735E1,-1.003489971E1,7.184450030E-1,-9.068797827E-1
1.411912766E1,-8.733204842E0,3.864408433E-1,-1.246660590E0
1.413858808E1,-4.923232555E0,3.122633696E-1,-1.288534999E0
1.415804849E1,-1.198804140E0,1.076770201E-1,-1.342373490E0
1.417750881E1,9.457631707E-1,-3.032902777E-1,-2.533401012E0
1.419696922E1,3.354139090E0,-5.754738450E-1,-4.400999069E0
1.421642954E1,6.786045074E0,-9.589236975E-1,-3.419343472E0
1.423588995E1,1.162373447E1,-1.767099500E0,-3.837489367E0
1.425535037E1,1.943809509E1,-1.950748682E0,-7.354938507E0
1.427481068E1,3.786342621E1,-6.484549642E-1,-6.004788399E0
1.429427110E1,5.779204941E1,-1.152144074E0,-5.102096081E0
1.431373141E1,3.976272964E1,-3.412763357E0,-9.422337532E0
1.433319183E1,2.307159615E1,-2.414358139E0,-1.031904793E1
1.435265224E1,1.632383537E1,-2.585444927E0,-8.243273735E0
1.437211256E1,1.357209015E1,-2.464009047E0,-6.970292568E0
1.439157297E1,1.140957642E1,-2.781656265E0,-5.678168297E0
1.441103339E1,9.540781975E0,-2.706880569E0,-4.359723091E0
1.443049370E1,7.204190731E0,-1.888535261E0,-2.994617462E0
1.444995412E1,3.897309780E0,-4.241278172E-1,-1.079761267E0
1.446941443E1,1.226321608E-1,8.368897438E-1,2.169692039E0
1.448887485E1,-4.331008911E0,1.079761267E0,4.846662045E0
1.450833527E1,-7.967501163E0,9.146564603E-1,3.934996843E0
1.452779558E1,-8.838488579E0,1.245464206E0,2.204986095E0
1.454725599E1,-9.196215630E0,1.168295622E0,1.058823988E-1
1.456671641E1,-7.880163193E0,3.912265003E-1,-1.584048629E0
1.458617672E1,-4.668396950E0,6.520441920E-2,-3.139383316E0
1.460563714E1,-1.701296926E0,4.606183618E-2,-3.425325632E0
1.462509745E1,8.057830334E-1,-3.415754437E-1,-2.943171740E0
1.464455787E1,3.157329559E0,-8.709874153E-1,-3.020340443E0
1.466401829E1,6.135197163E0,-6.915257573E-1,-2.321636200E0
1.468347860E1,9.570692062E0,2.183450609E-1,-2.492722988E0
1.470293902E1,1.468535042E1,1.103091240E0,-5.277968407E0
1.472239943E1,2.619721985E1,1.126421213E0,-4.479962349E0
1.474185974E1,4.786901474E1,-8.853443712E-2,-9.052646637E0
1.476132016E1,5.179623413E1,-5.598606586E0,-1.637946892E1
1.478078047E1,3.064727211E1,-8.384450912E0,-1.416371536E1
1.480024089E1,1.716311836E1,-6.220142365E0,-8.312665939E0
1.481970131E1,1.314257812E1,-4.271188259E0,-3.498904943E0
1.483916162E1,1.039741230E1,-2.492722988E0,-1.615155339E0
1.485862204E1,7.639684677E0,-4.504488707E-1,-9.487541914E-1
1.487808245E1,5.766702652E0,1.029511929E0,-1.016949654E0
1.489754276E1,4.429114819E0,1.752144337E0,-1.378864050E0
1.491700318E1,2.547757864E0,1.487139225E0,-1.899901152E0
1.493646349E1,-2.291127741E-1,3.110669553E-1,-1.326221943E0
1.495592391E1,-5.079962254E0,-6.598208547E-1,-6.221338734E-2
1.497538433E1,-8.836693764E0,-4.265206456E-1,4.049852192E-1
1.499484464E1,-8.467600822E0,2.237289101E-1,7.746763229E-1
1.501430506E1,-8.145766258E0,3.972085714E-1,4.187439680E-1
1.503376537E1,-6.725626469E0,5.090730190E-1,-4.055834413E-1
1.505322579E1,-3.574278831E0,7.052844763E-1,-9.529415965E-1
1.507268620E1,-6.161518395E-2,1.026520967E0,-2.194218397E0
1.509214652E1,3.088535786E0,6.334998012E-1,-3.772883177E0
1.511160693E1,6.269195557E0,2.608176768E-1,-5.462215900E0
1.513106724E1,1.308754349E1,3.224328458E-1,-7.764709473E0
1.515052766E1,2.359741783E1,3.834498227E-1,-1.088495064E1
1.516998808E1,5.320620728E1,-1.570888042E0,-1.091246796E1
1.518944839E1,6.936733246E1,-7.930412292E0,-1.439462280E1
1.520890881E1,3.036970520E1,-5.644668579E0,-1.215374470E1
1.522836912E1,1.245284748E1,-3.334996462E0,-7.214958668E0
1.524782954E1,8.023732185E0,-2.255833626E0,-5.083551884E0
1.526728995E1,6.657430649E0,-9.930213690E-1,-2.546561480E0
1.528675026E1,4.877768993E0,-1.136590764E-1,-2.796611547E0
1.530621068E1,4.127619267E0,1.758724600E-1,-2.980260611E0
1.532567110E1,2.100300074E0,8.638089895E-1,-2.316252232E0
1.534513141E1,-3.355933666E0,1.403390527E0,6.759724021E-2
1.536459183E1,-8.424530029E0,3.846462369E-1,9.589236975E-1
1.538405214E1,-9.672387123E0,1.060020447E0,-4.965107143E-2
1.540351256E1,-1.022692394E1,1.990230203E0,2.697907388E-1
1.542297297E1,-7.878966808E0,1.026520967E0,3.080759048E-1
1.544243329E1,-4.309473515E0,3.182454109E-1,-1.908276081E-1
1.546189370E1,-1.235294700E0,-3.846462369E-1,-3.948157430E-1
1.548135402E1,1.182054400E0,-1.116251707E0,-8.099704385E-1
1.550081443E1,2.771486759E0,-1.504487276E0,-1.731805444E0
1.552027485E1,5.583651543E0,-9.134600163E-1,-1.456630826E0
1.553973516E1,1.028255749E1,2.177468538E-1,-2.618944407E0
1.555919558E1,2.641377068E1,1.006181955E0,-4.524229527E0
1.557865599E1,5.744987869E1,8.763712645E-1,-2.593819857E0
1.559811631E1,6.390690994E1,-4.823332310E0,-1.721576118E1
1.561757672E1,3.296113205E1,-4.420739651E0,-1.631845284E1
1.563703704E1,1.826202202E1,-2.486740828E0,-1.038365364E1
1.565649745E1,1.098185921E1,-1.634896040E0,-4.805386066E0
1.567595787E1,7.134799004E0,-1.622931957E0,-1.013958573E0
1.569541818E1,4.406980991E0,-1.430907965E0,2.027917206E-1
1.571487860E1,2.742174864E0,-6.652047038E-1,-1.525424421E-1
1.573433891E1,8.374879137E-3,-3.589233849E-3,1.896311939E-1
1.575379933E1,-4.423132420E0,5.282155871E-1,1.830509305E0
1.577325974E1,-8.127222061E0,1.428515077E0,2.016551256E0
1.579272006E1,-8.557332039E0,1.888535261E0,3.499503136E-1
1.581218047E1,-8.319246292E0,1.693520188E0,-6.323033571E-1
1.583164079E1,-7.624729156E0,9.661021233E-1,-1.329811215E0
1.585110120E1,-5.039882660E0,8.075776696E-2,-1.710269928E0
1.587056162E1,-1.852642894E0,-5.330012441E-1,-1.717448473E0
1.589002193E1,9.511470199E-1,-1.118046403E0,-1.256231904E0
1.590948235E1,3.480360508E0,-1.332802176E0,-1.070189953E0
1.592894266E1,5.343173027E0,-8.219345808E-1,-2.691925526E0
1.594840308E1,7.480561733E0,-2.273181453E-2,-3.212364435E0
1.596786349E1,1.129172993E1,2.428714931E-1,-2.955136061E0
1.598732381E1,1.743051720E1,3.403790295E-1,-5.962913990E0
1.600678422E1,3.347798157E1,1.355534077E0,-9.370891571E0
1.602624454E1,5.616612625E1,-4.073780477E-1,-5.388636589E0
1.604570495E1,4.372045898E1,-5.513063431E0,-1.073779202E1
1.606516537E1,2.271925354E1,-4.598406792E0,-9.725627899E0
1.608462568E1,1.662832260E1,-5.358726501E0,-8.852845192E0
1.610408610E1,1.435573959E1,-4.248456478E0,-6.788437843E0
1.612354652E1,1.219382381E1,-1.066002488E0,-4.085146427E0
1.614300683E1,9.125029564E0,9.511470199E-1,-2.078166485E0
1.616246724E1,5.149354458E0,1.627119422E0,-1.118644550E-1
1.618192756E1,1.138385415E0,1.745564103E0,2.261815548E0
1.620138797E1,-2.634497643E0,1.051645517E0,4.342973232E0
1.622084839E1,-6.687341213E0,-5.341976285E-1,3.265006542E0
1.624030870E1,-8.148757935E0,-1.196411371E0,2.069791555E-1
1.625976912E1,-8.833105087E0,-6.891329288E-1,-1.429711580E0
1.627922943E1,-9.922437668E0,-2.901297510E-1,-2.596212626E0
1.629868985E1,-7.081558704E0,4.881358147E-1,-2.891128063E0
1.631815026E1,-2.890529871E0,1.368096352E0,-1.643869162E0
1.633761058E1,4.564309120E-1,1.361516118E0,-9.385846853E-1
1.635707099E1,3.325425386E0,4.498506486E-1,-6.305087805E-1
1.637653131E1,6.277570248E0,4.241278172E-1,1.579262912E-1
1.639599172E1,1.145264721E1,7.561319470E-1,-9.667003751E-1
1.641545214E1,2.466102791E1,1.700100541E0,-2.891128063E0
1.643491245E1,5.421418381E1,3.561716557E0,-4.618147850E0
1.645437287E1,6.078965759E1,-3.656831264E0,-1.942493439E1
1.647383318E1,3.282354355E1,-6.582056999E0,-1.643869209E1
1.649329360E1,2.068834496E1,-6.175875187E0,-1.158126163E1
1.651275402E1,9.926026344E0,-2.702095032E0,-5.158327579E0
1.653221433E1,5.191826820E0,-1.710868180E-1,-2.811566554E-2
1.655167474E1,2.944966555E0,6.245267391E-1,9.750752449E-1
1.657113516E1,8.518448472E-1,9.020941257E-1,1.107876897E0
1.659059547E1,-1.956730723E0,9.984052777E-1,1.894517303E0
1.661005589E1,-5.208576679E0,1.320239902E0,1.374078393E0
1.662951620E1,-7.420741081E0,1.482951880E0,7.597211748E-2
1.664897662E1,-8.316853523E0,8.656035662E-1,-1.575075507E0
1.666843693E1,-7.542775154E0,2.949153781E-1,-2.798406124E0
1.668789735E1,-7.143173695E0,2.081755698E-1,-3.174079180E0
1.670735776E1,-4.648057938E0,-1.788634956E-1,-2.649452925E0
1.672681808E1,-1.027119160E0,-4.049852192E-1,-1.701895118E0
1.674627849E1,1.870589137E0,-5.772684813E-1,-1.591825247E0
1.676573881E1,4.136591911E0,-7.214360237E-1,-1.502692580E0
1.678519922E1,7.292725086E0,-7.902296782E-1,-9.212366939E-1
1.680465964E1,1.212383366E1,-9.272187948E-2,-1.227517962E0
1.682411995E1,2.327857590E1,1.139581800E0,-4.105485439E0
1.684358037E1,4.588058090E1,1.441077471E0,-9.032905847E-2
1.686304068E1,5.307101059E1,-4.276572227E0,-9.281759262E0
1.688250110E1,2.908057213E1,-4.632504463E0,-1.017069244E1
1.690196152E1,1.789831352E1,-2.066800594E0,-1.025862885E1
1.692142183E1,1.496830177E1,-2.091925144E0,-9.118449211E0
1.694088224E1,1.419302750E1,-1.786242127E0,-6.506084919E0
1.696034256E1,1.178166008E1,-6.155536175E-1,-3.420539856E0
1.697980297E1,9.138189316E0,-3.332005441E-1,-2.554936409E0
1.699926339E1,6.784848690E0,-4.019941986E-1,-1.559522152E0
1.701872370E1,2.600998163E0,3.553341627E-1,1.532602906E0
1.703818412E1,-1.328614831E0,1.926222295E-1,4.016951084E0
1.705764443E1,-6.515655994E0,-7.812566161E-1,3.485146284E0
1.707710485E1,-8.788239479E0,6.197410822E-1,1.783849239E0
1.709656527E1,-9.499505997E0,1.774876237E0,8.021938205E-1
1.711602558E1,-9.401998520E0,1.117448211E0,-3.649054468E-1
1.713548599E1,-7.391428947E0,5.862415433E-1,-2.480758905E0
1.715494631E1,-4.141975880E0,4.582255483E-1,-3.039483070E0
1.717440672E1,-5.228317380E-1,4.342973232E-1,-2.258226395E0
1.719386714E1,2.943770170E0,-2.213360928E-2,-1.928615093E0
1.721332745E1,6.556932449E0,-4.809573591E-1,-1.567298889E0
1.723278787E1,1.417448330E1,-3.128615618E-1,-3.947559118E0
1.725224829E1,3.031526756E1,7.178468108E-1,-5.952146530E0
1.727170860E1,5.828856277E1,-1.335195065E0,-7.667201996E0
1.729116902E1,5.587300873E1,-9.232706070E0,-1.723250961E1
1.731062933E1,3.080459976E1,-6.134599209E0,-1.530748463E1
1.733008974E1,1.727259064E1,-2.600998163E0,-9.998409271E0
1.734955016E1,1.035194874E1,-1.108475089E0,-4.134797573E0
1.736901047E1,7.215556622E0,-6.269195080E-1,-6.454638839E-1
1.738847089E1,5.255236626E0,1.375873014E-2,-2.991028316E-2
1.740793120E1,3.148356438E0,4.767699242E-1,6.939185411E-2
1.742739162E1,3.912265003E-1,6.430711150E-1,2.452643216E-1
1.744685204E1,-3.166302681E0,7.615157962E-1,1.188634634E0
1.746631235E1,-6.389434814E0,8.063812256E-1,6.568298340E-1
1.748577276E1,-8.117650986E0,5.156532526E-1,-1.413560033E0
1.750523318E1,-8.575278282E0,4.336991012E-1,-2.045863390E0
1.752469349E1,-8.991030693E0,3.708875179E-1,-1.658824325E0
1.754415391E1,-7.487142086E0,2.099701911E-1,-1.613958836E0
1.756361422E1,-3.708276987E0,-3.984049559E-1,-1.330409408E0
1.758307464E1,1.411765367E-1,-1.006780148E0,-7.328019142E-1
1.760253495E1,3.265604734E0,-1.165902853E0,-1.296909928E0
1.762199537E1,6.400202274E0,-8.620143533E-1,-2.005783558E0
1.764145579E1,9.405587196E0,-4.019941986E-1,-1.174875975E0
1.766091610E1,1.540618896E1,-3.290131092E-1,-3.494119167E0
1.768037652E1,2.924089050E1,2.386840582E-1,-9.519247055E0
1.769983683E1,5.414179993E1,-1.091127157E0,-4.658227444E0
1.771929724E1,5.349095154E1,-5.094917774E0,-1.464766407E1
1.773875766E1,2.789971352E1,-1.707278967E0,-1.280578899E1
1.775821797E1,1.726242065E1,-2.703889608E-1,-8.471190453E0
1.777767839E1,1.366660690E1,-5.706881881E-1,-5.583053589E0
1.779713870E1,1.149153042E1,-5.958128572E-1,-3.733401537E0
1.781659912E1,8.789435387E0,-3.278166950E-1,-2.768495798E0
1.783605954E1,6.087938786E0,-6.340979934E-1,-2.031506538E0
1.785551985E1,2.545963287E0,-7.226324677E-1,-1.120439172E0
1.787498026E1,-1.435095429E0,1.232303679E-1,1.308275819E0
1.789444058E1,-6.253043652E0,2.673979402E-1,3.010170937E0
1.791390099E1,-9.120243073E0,3.756731451E-1,1.078564763E0
1.793336141E1,-9.383454323E0,1.256231904E0,3.164508045E-1
1.795282172E1,-9.537791252E0,1.178465128E0,-8.554340899E-2
1.797228214E1,-7.001399040E0,5.694918036E-1,-9.523434043E-1
1.799174245E1,-3.391227961E0,7.178467698E-3,-1.284347534E0
1.801120287E1,-1.214357466E-1,-5.904290080E-1,-1.052243710E0
1.803066329E1,3.177070379E0,-1.051047325E0,-7.956135273E-1
1.805012360E1,6.763911247E0,-9.996016622E-1,-2.853440940E-1
1.806958402E1,1.024965572E1,-1.734796353E-2,-6.819544733E-2
1.808904433E1,1.551386547E1,9.876375198E-1,-5.174478889E-1
1.810850474E1,2.901656342E1,2.550150633E0,7.591229677E-1
1.812796516E1,4.666004181E1,3.342773199E0,-6.040082455E0
1.814742547E1,4.832006073E1,-2.566900492E0,-1.514896011E1
1.816688589E1,3.189752197E1,-4.143172264E0,-1.309352589E1
1.818634631E1,2.139721870E1,-3.729214191E0,-9.230911255E0
1.820580662E1,1.504905987E1,-2.053041935E0,-4.677968502E0
1.822526704E1,1.005583763E1,-8.159525394E-1,-1.238285661E0
1.824472735E1,5.938985825E0,5.742774159E-2,1.794616925E-3
1.826418777E1,3.269792080E0,7.088736892E-1,-3.834498227E-1
1.828364818E1,1.010369420E0,1.176670551E0,-3.212364316E-1
1.830310849E1,-1.987239242E0,1.378864050E0,7.932206988E-1
1.832256891E1,-5.652445316E0,9.744769931E-1,1.181456208E0
1.834202922E1,-8.410173416E0,3.720839322E-1,-2.877369225E-1
1.836148964E1,-8.994022369E0,6.047859192E-1,-1.018744230E0
1.838095006E1,-8.822935104E0,4.528416991E-1,-6.430711150E-1
1.840041037E1,-6.385845661E0,-2.584248483E-1,-3.517449200E-1
1.841987079E1,-2.852842808E0,-6.305087805E-1,-1.896311939E-1
1.843933110E1,1.902294010E-1,-7.621139884E-1,-8.338986635E-1
1.845879152E1,3.200998545E0,-5.365904570E-1,-2.072782516E0
1.847825193E1,5.742774487E0,-4.366901219E-1,-2.284547329E0
1.849771224E1,8.854640007E0,-2.650051117E-1,-3.151347399E0
1.851717266E1,1.391605854E1,5.485545993E-1,-6.330810547E0
1.853663297E1,2.595195580E1,1.214357495E0,-9.746564865E0
1.855609339E1,4.617728806E1,3.233301640E0,-4.972285271E0
1.857555381E1,5.500201797E1,-3.057429075E0,-1.234696484E1
1.859501412E1,3.048097038E1,-3.722035646E0,-1.042792130E1
1.861447454E1,1.813819313E1,-2.709871531E0,-6.901498795E0
1.863393485E1,1.471167183E1,-2.925823927E0,-4.919044971E0
1.865339526E1,1.231346512E1,-1.751546144E0,-2.331207514E0
1.867285568E1,9.187242508E0,-8.458628058E-1,-1.681556106E0
1.869231599E1,6.717849731E0,-1.302891970E0,-2.691327333E0
1.871177641E1,4.570291042E0,-1.289133191E0,-3.105285645E0
1.873123672E1,1.524826288E0,-3.332005441E-1,-1.678565025E0
1.875069714E1,-2.883949518E0,5.808576941E-1,1.032503009E0
1.877015756E1,-7.894520283E0,3.708875179E-1,2.181057930E0
1.878961787E1,-1.172243786E1,1.674377680E0,1.351944804E-1
1.880907829E1,-1.182832050E1,2.632703066E0,-6.729813814E-1
1.882853860E1,-9.251849174E0,2.106282234E0,-1.347159147E0
1.884799902E1,-4.088735580E0,1.216152072E0,-2.024327993E0
1.886745943E1,-2.961117923E-1,9.152546525E-2,-2.031506538E0
1.888691974E1,2.567498684E0,-1.202393413E0,-1.605584025E0
1.890638016E1,4.841876507E0,-2.241476536E0,-1.409372568E0
1.892584047E1,7.128218651E0,-1.826920033E0,-1.062413216E0
1.894530089E1,1.033460140E1,-1.175474167E0,-1.629512191E0
1.896476131E1,2.021277046E1,-1.077368379E0,-5.136792183E0
1.898422162E1,4.425884247E1,2.673979402E-1,-6.281159520E-1
1.900368204E1,5.772565079E1,-1.909472466E0,-1.224287701E1
1.902314235E1,4.022574234E1,-4.059423447E0,-1.614198112E1
1.904260276E1,2.367458725E1,-2.379063845E0,-1.145264721E1
1.906206318E1,1.532423401E1,-1.333998680E0,-5.039882660E0
1.908152349E1,1.089870930E1,-1.527219057E0,-1.794018745E0
1.910098391E1,8.025527000E0,-1.274776220E0,-8.991031051E-1
1.912044433E1,5.184648514E0,-7.663014531E-1,-1.222732425E0
1.913990464E1,2.595016241E0,-3.122633696E-1,-1.554736495E0
1.915936506E1,-7.148557901E-1,1.962114573E-1,-7.968099117E-1
1.917882537E1,-4.738985062E0,1.046859860E0,6.652047038E-1
1.919828579E1,-8.355138779E0,1.530808330E0,-4.486542568E-2
1.921774620E1,-9.893125534E0,1.503290772E0,-2.041077614E0
1.923720652E1,-1.110628605E1,9.158528447E-1,-2.018345833E0
1.925666693E1,-9.082556725E0,2.841476798E-1,-1.557129383E0
1.927612724E1,-4.713262558E0,-7.220342159E-1,-1.194616675E0
1.929558766E1,-6.035895348E-1,-1.469791293E0,-8.787640929E-1
1.931504808E1,2.400599241E0,-1.341775298E0,-2.865405083E-1
1.933450839E1,4.698905468E0,-6.783652306E-1,-8.159525394E-1
1.935396881E1,7.591827869E0,-7.716853172E-2,-2.061416626E0
1.937342912E1,9.536594391E0,4.067798555E-1,-2.775674343E0
1.939288954E1,1.260718441E1,4.235295951E-1,-4.074378967E0
1.941234995E1,2.298066902E1,4.666004181E-1,-7.964509964E0
1.943181027E1,4.729952240E1,-1.329811215E0,-4.557130814E0
1.945127068E1,5.590351486E1,-4.533202648E0,-9.607781410E0
1.947073099E1,3.241437149E1,-3.751945972E0,-9.308678627E0
1.949019141E1,2.197328949E1,-1.234098315E0,-7.441080093E0
1.950965183E1,1.967558289E1,-4.498506486E-1,-5.318048477E0
1.952911214E1,1.601037598E1,4.127618968E-1,-4.118646145E0
1.954857256E1,1.127258778E1,7.764709592E-1,-3.144767046E0
1.956803297E1,7.472784996E0,6.747759581E-1,-2.546561480E0
1.958749329E1,4.476373196E0,6.364908218E-1,-2.714657307E0
1.960695370E1,1.048056364E0,8.159525394E-1,-2.499901533E0
1.962641402E1,-2.826521635E0,1.159322619E0,-5.467599630E-1
1.964587443E1,-9.017950058E0,4.295116663E-1,1.131206870E0
1.966533485E1,-1.112004471E1,2.081755698E-1,9.655039310E-1
1.968479516E1,-1.077009487E1,4.899304509E-1,1.418943882E0
1.970425558E1,-8.553742409E0,-5.216353536E-1,1.325025558E0
1.972371589E1,-4.589433670E0,-5.778666735E-1,2.667997181E-1
1.974317631E1,-1.293320656E0,-3.098705411E-1,-1.100100160E0
1.976263672E1,1.905883193E0,-1.411765367E-1,-2.095514536E0
1.978209704E1,4.250849247E0,-8.135596663E-2,-2.388036966E0
1.980155745E1,6.256632805E0,-4.845465720E-2,-1.749153376E0
1.982101776E1,8.566903114E0,9.876375198E-1,-1.619342685E0
1.984047818E1,1.135214901E1,1.743171334E0,-2.343171597E0
1.985993860E1,2.259063911E1,3.004188776E0,-4.280759811E0
1.987939891E1,5.130092239E1,1.539183140E0,-2.073979139E0
1.989885933E1,5.752465439E1,-6.949355125E0,-1.645603943E1
1.991831964E1,3.213381195E1,-8.776275635E0,-1.514537048E1
1.993778006E1,1.913121605E1,-6.738188744E0,-1.233559895E1
1.995724047E1,1.076112175E1,-2.888735056E0,-6.538387775E0
1.997670079E1,5.867201328E0,2.799602449E-1,-2.458625287E-1
1.999616120E1,3.420539856E0,1.220339537E0,1.939382792E0
2.001562162E1,1.589432478E0,1.430907965E0,2.257628202E0
2.003508193E1,-1.214357495E0,2.329412937E0,2.684148788E0
2.005454235E1,-4.627120972E0,3.446262836E0,1.768894196E0
2.007400266E1,-6.754340172E0,3.458226919E0,5.126622319E-1
2.009346308E1,-7.417151928E0,1.947757602E0,-1.124028444E0
2.011292349E1,-7.177271366E0,6.843472719E-1,-1.989033818E0
2.013238381E1,-6.863213539E0,-3.972085714E-1,-2.133799553E0
2.015184422E1,-4.895715237E0,-1.548754454E0,-2.000998020E0
2.017130454E1,-1.846660852E0,-2.031506538E0,-1.476969719E0
2.019076495E1,1.354935765E0,-1.854437590E0,-1.594218135E0
2.021022537E1,4.811367989E0,-1.127617717E0,-1.962114573E0
2.022968568E1,8.053643227E0,-3.918247223E-1,-1.413560033E0
2.024914610E1,1.445384502E1,2.799602449E-1,-2.076371908E0
2.026860641E1,2.920440102E1,1.725823283E0,-4.939982414E0
2.028806683E1,5.227659607E1,4.283152580E0,-1.466202021E0
2.030752724E1,5.633781433E1,-7.361518860E0,-1.474935913E1
2.032698756E1,2.698625374E1,-6.982256413E0,-1.462313747E1
2.034644797E1,1.488933849E1,-4.768895626E0,-9.782457352E0
2.036590829E1,1.243669605E1,-3.175873756E0,-5.861218929E0
2.038536870E1,1.046381378E1,-7.980063558E-1,-2.097907305E0
2.040482912E1,7.131209850E0,1.262213886E-1,-1.154536903E-1
2.042428943E1,3.852444410E0,9.092725813E-2,9.272187948E-1
2.044374985E1,9.463613629E-1,4.558327198E-1,2.303689957E0
2.046321026E1,-2.395813704E0,1.352542996E0,2.681756020E0
2.048267058E1,-6.091528416E0,1.328614831E0,1.539781332E0
2.050213099E1,-8.724231720E0,1.537986755E0,-1.061216831E0
2.052159131E1,-9.232706070E0,2.682952404E0,-2.158924341E0
2.054105172E1,-9.665806770E0,2.678765059E0,-2.768495798E0
2.056051214E1,-6.988836765E0,1.210170031E0,-3.142972469E0
2.057997245E1,-3.735794306E0,2.117647976E-1,-2.376072884E0
2.059943287E1,1.399801224E-1,-2.638086975E-1,-1.566700578E0
2.061889318E1,4.605585575E0,-7.465606928E-1,-3.308077157E-1
2.063835360E1,8.459824562E0,-1.104287624E0,4.187439568E-3
2.065781402E1,2.217787743E1,-1.523629785E0,-1.910668850E0
2.067727433E1,4.752025986E1,6.400800496E-2,7.250252366E-1
2.069673474E1,5.815456390E1,-1.389631748E0,-9.262616158E0
2.071619516E1,3.714617920E1,-6.235097408E0,-1.337468243E1
2.073565547E1,2.483809662E1,-4.054637909E0,-1.562393570E1
2.075511589E1,1.674138451E1,-6.448656917E-1,-8.426922798E0
2.077457620E1,9.952945709E0,9.900303483E-1,-1.046859860E0
2.079403662E1,6.628118515E0,4.965106845E-1,1.456630826E0
2.081349704E1,3.099303484E0,4.426721856E-2,1.299302697E0
2.083295735E1,-1.549352705E-1,2.811566591E-1,1.179661512E0
2.085241777E1,-3.740580082E0,8.841479421E-1,2.137388945E0
2.087187818E1,-7.283751965E0,1.761715651E0,2.594418049E0
2.089133849E1,-8.542376518E0,1.614557028E0,4.881358147E-1
2.091079891E1,-8.170890808E0,1.183848977E0,-1.476371527E0
2.093025922E1,-7.549953461E0,4.013960063E-1,-1.814357758E0
2.094971964E1,-6.506084919E0,-9.122636318E-1,-2.424527645E0
2.096918006E1,-3.558725595E0,-1.238285661E0,-2.827120066E0
2.098864037E1,-5.084748268E-1,-5.808576941E-1,-2.457428932E0
2.100810079E1,2.231307030E0,-2.524427772E-1,-1.946561217E0
2.102756110E1,4.577469826E0,-5.724828243E-1,-2.752942562E0
2.104702152E1,7.967501163E0,-3.900300860E-1,-2.599801779E0
2.106648193E1,1.332383442E1,2.225325108E-1,-3.273979664E0
2.108594224E1,2.441516495E1,1.274776220E0,-8.786444664E0
2.110540266E1,5.289095306E1,3.235096216E0,-2.905484915E0
2.112486297E1,6.118567276E1,-4.425525665E0,-1.165902805E1
2.114432339E1,3.522235107E1,-5.676971912E0,-1.523569965E1
2.116378381E1,2.074337959E1,-3.166900873E0,-1.229193020E1
2.118324412E1,1.525185108E1,-2.367697954E0,-7.342974663E0
2.120270454E1,1.074257755E1,-8.644071817E-1,-3.390629768E0
2.122216495E1,6.814160824E0,6.699903309E-2,-1.490130305E0
2.124162526E1,4.159922123E0,7.160521746E-1,-9.200403094E-1
2.126108568E1,1.379462242E0,1.214357495E0,-1.890329868E-1
2.128054599E1,-2.254637241E0,1.716850281E0,8.745766878E-1
2.130000641E1,-7.656434059E0,1.551745534E0,8.913264275E-1
2.131946683E1,-9.655637741E0,1.878365755E0,-4.773681164E-1
2.133892714E1,-1.013300610E1,1.690529227E0,-7.704889178E-1
2.135838756E1,-9.814760208E0,2.925225794E-1,-8.458628058E-1
2.137784787E1,-5.813362598E0,-8.985049129E-1,-1.402792215E0
2.139730829E1,-2.585444927E0,-1.346560955E0,-1.438086390E0
2.141676870E1,4.731806815E-1,-1.597209096E0,-8.440681696E-1
2.143622902E1,2.767897606E0,-1.578664780E0,-5.282155871E-1
2.145568943E1,4.726422787E0,-1.369292736E0,-1.944168359E-1
2.147514974E1,7.668398380E0,1.196411322E-3,-7.657032460E-2
2.149461016E1,1.305165100E1,1.992024899E0,-9.200403094E-1
2.151407058E1,3.076093102E1,5.127819061E0,-8.799605370E-1
2.153353089E1,5.948317719E1,6.894918442E0,-6.891329288E0
2.155299131E1,5.420580673E1,-4.428516388E0,-1.822912025E1
2.157245172E1,2.925524712E1,-7.843074322E0,-1.423550034E1
2.159191204E1,1.708415604E1,-5.928217888E0,-8.247461319E0
2.161137245E1,9.445069313E0,-2.281556368E0,-1.624128342E0
2.163083287E1,5.839683533E0,-6.173482537E-1,2.149353027E0
2.165029318E1,3.446861029E0,-3.290131316E-2,1.802393675E0
2.166975360E1,1.082752228E0,5.407779217E-1,8.470591903E-1
2.168921391E1,-1.612762451E0,9.391828775E-1,4.049852192E-1
2.170867433E1,-4.246662140E0,1.632503271E0,-3.678964674E-1
2.172813474E1,-7.023532867E0,1.715055585E0,-1.191625714E0
2.174759506E1,-8.199604988E0,1.260419369E0,-2.542374134E0
2.176705547E1,-7.546364307E0,5.982056856E-1,-2.585444927E0
2.178651579E1,-7.501499176E0,4.701896608E-1,-1.942971945E0
2.180597620E1,-6.105287075E0,-1.028913707E-1,-1.317248821E0
2.182543662E1,-2.602792740E0,-7.124629617E-1,-1.228116274E0
2.184489693E1,1.152742267E0,-9.720842242E-1,-1.448854089E0
2.186435735E1,3.333800077E0,-1.025324464E0,-1.799402595E0
2.188381766E1,4.609772682E0,-4.253242314E-1,-1.859223247E0
2.190327808E1,6.931408882E0,2.135594189E-1,-2.000399828E0
2.192273849E1,1.628794289E1,5.240281820E-1,-4.908875465E0
2.194219881E1,4.859403992E1,1.637887120E0,-2.278565407E0
2.196165922E1,7.422595978E1,-3.086741209E0,-1.154297638E1
2.198111954E1,4.221956253E1,-6.582654953E0,-1.810529327E1
2.200057995E1,1.756092453E1,-1.338784218E0,-1.161356449E1
2.202004037E1,1.085384369E1,-7.740781307E-1,-5.874977589E0
2.203950068E1,9.924231529E0,-1.300499082E0,-2.822932482E0
2.205896110E1,8.253443718E0,-5.306084156E-1,-1.511665702E0
2.207842152E1,5.609972477E0,2.309073806E-1,-1.962114573E0
2.209788183E1,2.704487801E0,7.423732281E-1,-2.107478619E0
2.211734224E1,-1.006181955E0,1.412363529E0,9.212367237E-2
2.213680256E1,-4.695316315E0,1.578066587E0,2.471187592E0
2.215626297E1,-7.724629879E0,1.055234790E0,4.342973232E-1
2.217572339E1,-9.913464546E0,1.452443361E0,-1.473380566E0
2.219518370E1,-1.175474167E1,1.984846354E0,-1.877767563E0
2.221464412E1,-9.009575844E0,1.333400369E0,-1.999203324E0
2.223410454E1,-4.864608288E0,-3.768695518E-2,-1.920240164E0
2.225356485E1,-1.828714728E0,-1.034895778E0,-1.770090580E0
2.227302526E1,1.704287887E0,-1.488933921E0,-1.676770449E0
2.229248558E1,6.501897335E0,-1.386640668E0,1.208375469E-1
2.231194599E1,1.382572937E1,-7.435696125E-1,1.707877159E0
2.233140641E1,2.435773849E1,3.272185028E-1,2.452643216E-1
2.235086672E1,4.813342285E1,8.590233326E-1,1.025324464E0
2.237032714E1,5.967639923E1,-1.239482164E0,-1.704886055E1
2.238978756E1,3.531626892E1,-3.455235958E0,-1.970010948E1
2.240924787E1,2.108675003E1,-1.712662816E0,-1.554437447E1
2.242870829E1,1.529731560E1,-4.588237405E-1,-8.246863365E0
2.244816860E1,8.685347557E0,-1.399801224E-1,-3.111865759E0
2.246762902E1,5.208576679E0,-6.795616150E-1,6.538388133E-1
2.248708943E1,2.837887764E0,-7.477570772E-1,1.552941918E0
2.250654974E1,7.256234884E-1,-3.954139352E-1,1.257428288E0
2.252601016E1,-2.356930256E0,-8.075776696E-2,1.753340840E0
2.254547058E1,-5.405386448E0,3.894318938E-1,1.857428551E0
2.256493089E1,-8.516654015E0,5.114658475E-1,5.838487148E-1
2.258439131E1,-1.007318497E1,9.870393574E-2,-1.244866014E0
2.260385162E1,-9.457033157E0,-2.518445849E-1,-1.580459356E0
2.262331204E1,-6.569494724E0,-3.266202807E-1,-1.579861164E0
2.264277245E1,-2.769093990E0,-7.136593461E-1,-1.593619823E0
2.266223277E1,7.507480979E-1,-9.074779749E-1,-1.475175142E0
2.268169318E1,3.535395384E0,-9.230313301E-1,-1.001994491E0
2.270115360E1,5.304289818E0,-5.084748268E-1,-1.647458434E0
2.272061391E1,6.427719593E0,2.422732860E-1,-2.400599241E0
2.274007433E1,8.132007599E0,4.911268353E-1,-2.453839540E0
2.275953464E1,1.121575832E1,1.178465188E-1,-3.374478102E0
2.277899506E1,1.911925125E1,3.469592705E-2,-7.492526054E0
2.279845547E1,4.264907074E1,-9.523434043E-1,-4.569094658E0
2.281791579E1,5.562594986E1,-4.246662140E0,-1.297328663E1
2.283737620E1,3.900600052E1,-6.776473522E0,-1.312582874E1
2.285683662E1,2.179741859E1,-3.863212109E0,-1.164826107E1
2.287629693E1,1.914437485E1,-4.089931965E0,-1.016829967E1
2.289575735E1,1.715414619E1,-2.447259426E0,-7.027122021E0
2.291521776E1,1.262513065E1,2.494517565E-1,-3.118446112E0
2.293467808E1,7.330412388E0,1.349551916E0,-1.582253933E0
2.295413849E1,3.606581926E0,9.595218897E-1,-3.702892959E-1
2.297359881E1,-1.492523074E0,1.472782373E0,1.757528186E0
2.299305922E1,-6.583253384E0,1.602592945E0,3.123830080E0
2.301251964E1,-9.071190834E0,5.521438122E-1,-5.084748268E-1
2.303197995E1,-9.890732765E0,6.502495408E-1,-1.576870084E0
2.305144037E1,-1.192283726E1,-3.595215976E-1,-1.368096352E0
2.307090068E1,-1.054816055E1,-8.033902049E-1,-1.264606714E0
2.309036110E1,-4.660620213E0,-6.011967063E-1,-1.143171072E0
2.310982152E1,-2.392822690E-2,-5.066801906E-1,-7.794619799E-1
2.312928183E1,3.870988846E0,-3.996013701E-1,3.475574851E-1
2.314874224E1,6.658627033E0,3.469592705E-2,1.052243710E0
2.316820266E1,8.066802979E0,1.471585870E0,1.049850941E0
2.318766297E1,1.010548782E1,2.356930256E0,-1.619940877E0
2.320712339E1,1.781157303E1,3.594617844E0,-7.076174736E0
2.322658370E1,4.014617920E1,3.673580885E0,-5.446064472E0
2.324604412E1,6.155356979E1,-5.890531063E0,-1.617847252E1
2.326550454E1,4.470929337E1,-1.069890785E1,-1.704945946E1
2.328496495E1,2.161975098E1,-4.711467743E0,-1.255813122E1
2.330442527E1,9.885947227E0,3.008974493E-1,-5.446064472E0
2.332388568E1,4.928018093E0,1.636690736E0,2.081755698E-1
2.334334599E1,3.944568157E0,3.463610709E-1,-8.554340899E-2
2.336280641E1,2.291725874E0,-1.597209126E-1,2.512463741E-2
2.338226683E1,-1.280160099E-1,-1.878365725E-1,4.175475538E-1
2.340172714E1,-3.354139090E0,-5.802594870E-2,3.068794906E-1
2.342118756E1,-6.665805817E0,1.167099237E0,-3.876372576E-1
2.344064797E1,-8.204988480E0,1.668395638E0,-1.657029629E0
2.346010829E1,-7.717451096E0,1.547558069E0,-2.469393015E0
2.347956870E1,-8.280961037E0,1.515254974E0,-2.376072884E0
2.349902902E1,-6.895516872E0,7.052844763E-1,-1.730010748E0
2.351848943E1,-2.839682341E0,-6.933203340E-1,-1.802393675E0
2.353794985E1,8.410771489E-1,-1.616949916E0,-2.201995134E0
2.355741016E1,3.224328518E0,-1.916650891E0,-2.575275421E0
2.357687058E1,5.729015827E0,-1.238883972E0,-2.949752092E0
2.359633099E1,8.856434822E0,2.183450609E-1,-2.431705952E0
2.361579131E1,1.747777557E1,1.688734531E0,-2.876770973E0
2.363525172E1,4.402075958E1,5.571687698E0,-1.346560955E0
2.365471214E1,7.504729462E1,-1.826321840E0,-1.096869946E1
2.367417245E1,3.716352844E1,-6.750152588E0,-1.520339680E1
2.369363287E1,1.626521111E1,-3.111267567E0,-9.367900848E0
2.371309329E1,1.209512043E1,-1.114457130E0,-7.624729156E0
2.373255360E1,9.524032593E0,4.241278172E-1,-3.381656647E0
2.375201402E1,6.468397617E0,1.453639746E0,-1.524826288E0
2.377147433E1,4.002593994E0,1.064806104E0,-1.610369682E0
2.379093474E1,2.216351986E0,1.381855011E-1,-1.415354609E0
2.381039516E1,-2.901297510E-1,-8.338986635E-1,-7.220342159E-1
2.382985547E1,-4.724030018E0,-1.511665702E0,4.402793646E-1
2.384931589E1,-8.499904633E0,-1.930409670E0,1.292124242E-1
2.386877631E1,-1.168235874E1,-1.089332461E0,-7.914260626E-1
2.388823662E1,-1.226501083E1,-2.829512656E-1,-1.269392371E0
2.390769704E1,-7.869993687E0,-2.081755698E-1,-1.484746456E0
2.392715745E1,-4.046861172E0,-1.890329868E-1,-1.644467354E0
2.394661777E1,-1.170688510E0,-5.982056633E-2,-2.232503414E0
2.396607818E1,8.961120844E-1,3.224328458E-1,-3.051447153E0
2.398553849E1,4.150351048E0,7.094719410E-1,-2.308475733E0
2.400499891E1,1.095015430E1,1.135992527E0,-3.409772217E-1
2.402445933E1,2.356152725E1,1.703689694E0,-2.161915302E0
2.404391974E1,5.128656387E1,2.441277266E0,-2.982055187E0
2.406338006E1,6.846105194E1,-2.632104874E0,-1.649611855E1
2.408284047E1,3.826422501E1,-5.298307419E0,-1.850549126E1
2.410230089E1,2.175733757E1,-3.799802303E0,-1.426900005E1
2.412176120E1,1.187019539E1,-1.963310957E0,-7.045666218E0
2.414122162E1,5.465207100E0,-1.138385415E0,-1.374078393E0
2.416068193E1,2.782852650E0,-5.527420044E-1,1.436890006E0
2.418014235E1,1.357926846E0,-1.555334684E-2,2.941377163E0
2.419960276E1,-2.121835470E0,8.638089895E-1,4.554738045E0
2.421906308E1,-5.364708424E0,1.461416483E0,4.007977962E0
2.423852349E1,-6.654439926E0,9.068797827E-1,1.030708313E0
2.425798391E1,-8.443074226E0,-2.422732860E-1,-2.404786825E0
2.427744422E1,-9.672387123E0,-7.633104324E-1,-4.213162422E0
2.429690464E1,-9.689735413E0,-7.716853023E-1,-4.148556232E0
2.431636506E1,-5.148158073E0,-4.905286431E-1,-3.008376360E0
2.433582537E1,-1.453639716E-1,4.151547253E-1,-1.287936807E0
2.435528579E1,4.021736622E0,1.158126116E0,2.991028428E-1
2.437474620E1,5.322834015E0,1.344168067E0,4.989035130E-1
2.439420652E1,6.936194420E0,1.317248821E0,-4.671986103E-1
2.441366693E1,8.184051514E0,1.200598717E0,-2.691327333E0
2.443312735E1,9.823135376E0,-2.440679073E-1,-4.673780918E0
2.445258766E1,1.429472256E1,-1.473978758E0,-7.007380962E0
2.447204808E1,2.935813904E1,-2.468794823E0,-1.022034359E1
2.449150849E1,6.197051620E1,-6.090332031E0,-2.971885681E0
2.451096881E1,5.291667557E1,-4.377668858E0,-1.203470135E1
2.453042922E1,2.647897530E1,-8.877372146E-1,-8.849854469E0
2.454988964E1,1.710389709E1,-5.539384484E-1,-6.427719593E0
2.456934995E1,1.365882969E1,-8.350951076E-1,-6.207580090E0
2.458881037E1,1.098843956E1,3.960121572E-1,-4.641477585E0
2.460827079E1,8.420342445E0,1.244267821E0,-2.715255499E0
2.462773110E1,5.469394207E0,9.690931439E-1,-2.178664923E0
2.464719152E1,2.029711723E0,6.669993401E-1,-9.391828775E-1
2.466665193E1,-1.990828395E0,4.468596280E-1,1.216750264E0
2.468611224E1,-7.000202656E0,-3.403790295E-1,2.460419893E0
2.470557266E1,-9.699904442E0,-6.077769399E-1,1.289133191E0
2.472503308E1,-9.608379364E0,7.657032460E-2,5.910272002E-1
2.474449339E1,-1.039621639E1,-1.369891018E-1,-4.474578202E-1
2.476395381E1,-8.383254051E0,-6.963114142E-1,-1.221535921E0
2.478341412E1,-4.366901398E0,-9.499505758E-1,-2.438884497E0
2.480287454E1,-1.232901812E0,-1.080957651E0,-2.787638426E0
2.482233495E1,8.913264275E-1,-1.000199914E0,-2.688336134E0
2.484179527E1,3.612564087E0,-3.649054468E-1,-2.523829699E0
2.486125568E1,8.910871506E0,1.278963685E0,-1.021735311E0
2.488071610E1,1.971506310E1,3.098107100E0,-1.511067510E0
2.490017652E1,4.755675125E1,4.596612453E0,1.171286702E0
2.491963683E1,6.585825348E1,-1.746760458E-1,-1.454417419E1
2.493909724E1,4.003012848E1,-6.714858532E0,-1.381735420E1
2.495855766E1,2.238724899E1,-6.370890141E0,-1.169312572E1
2.497801797E1,1.191745281E1,-1.993221283E0,-7.718647480E0
2.499747839E1,6.787839413E0,4.642075896E-1,-1.115653515E0
2.501693881E1,3.479164124E0,2.123630047E-1,6.765705943E-1
2.503639912E1,1.674377680E0,-3.385843933E-1,3.080759048E-1
2.505585954E1,-6.065805554E-1,5.084748194E-2,4.438686073E-1
2.507531995E1,-3.622135162E0,5.264210105E-1,9.379864931E-1
2.509478026E1,-5.960521221E0,5.377869010E-1,1.223928809E0
2.511424068E1,-8.721240044E0,6.502495408E-1,7.645068169E-1
2.513370110E1,-8.320442200E0,6.634100676E-1,-1.189232826E0
2.515316141E1,-7.812565804E0,7.597211599E-1,-1.713859200E0
2.517262183E1,-5.469992638E0,1.250249892E-1,-1.770688772E0
2.519208224E1,-2.388635159E0,-4.809573591E-1,-2.001596212E0
2.521154256E1,3.966103494E-1,-6.993024349E-1,-2.249253273E0
2.523100297E1,2.342573404E0,-7.076773047E-1,-2.685943365E0
2.525046329E1,4.708476543E0,-4.899304509E-1,-2.795415163E0
2.526992370E1,9.017352104E0,-8.673982322E-2,-1.442872047E0
2.528938412E1,1.580040646E1,-4.845465720E-2,-2.033899307E0
2.530884443E1,4.013241959E1,3.209373474E0,-4.448257446E0
2.532830485E1,7.202815247E1,2.515454769E0,-9.776474953E0
2.534776527E1,4.910191727E1,-7.121040344E0,-1.905763626E1
2.536722568E1,2.134996033E1,-4.104289055E0,-1.600080490E1
2.538668599E1,1.254736328E1,-2.429313183E0,-1.048056316E1
2.540614641E1,9.354142189E0,-1.817947030E0,-5.288736343E0
2.542560683E1,5.632704735E0,-2.452643216E-1,-1.879562140E0
2.544506714E1,3.509074450E0,6.711867452E-1,-1.902294010E-1
2.546452756E1,1.547558069E0,1.018146038E0,6.329016089E-1
2.548398797E1,-1.622333765E0,1.499701619E0,2.027318954E0
2.550344829E1,-5.684748173E0,1.319043517E0,2.743371248E0
2.552290870E1,-8.075776100E0,-2.063809484E-1,8.656035662E-1
2.554236912E1,-9.839884758E0,-5.132604837E-1,-4.594219327E-1
2.556182943E1,-1.011446095E1,5.922235847E-1,-7.746763229E-1
2.558128985E1,-6.533003807E0,7.040880919E-1,-1.452443361E0
2.560075027E1,-3.649652719E0,5.623133108E-2,-2.035693884E0
2.562021058E1,-1.775474429E0,-5.102694035E-1,-2.355733871E0
2.563967099E1,-5.982056609E-4,-1.207179070E0,-2.486142635E0
2.565913141E1,1.048056364E0,-1.632503271E0,4.779663086E-1
2.567859172E1,8.496315002E0,-1.589432478E0,-8.273184299E-1
2.569805214E1,2.307757759E1,-3.493520916E-1,-1.345364571E0
2.571751256E1,5.162215805E1,9.457631707E-1,1.560718536E0
2.573697297E1,6.808776855E1,2.703889608E-1,-1.527697659E1
2.575643329E1,3.987818527E1,-4.682155609E0,-1.650449371E1
2.577589370E1,2.289691925E1,-2.845664263E0,-1.368215942E1
2.579535412E1,1.234816170E1,-1.112064362E0,-5.935994625E0
2.581481443E1,8.168498039E0,-1.074377418E0,-1.619940877E0
2.583427485E1,4.663012981E0,-1.616351724E0,-9.499505758E-1
2.585373526E1,1.444068432E0,-1.149751306E0,-6.933203340E-1
2.587319558E1,-7.339983582E-1,-6.029912829E-1,-4.193421602E-1
2.589265599E1,-3.354737282E0,2.285145670E-1,-1.896311939E-1
2.591211641E1,-6.107081413E0,1.472184181E0,-3.810569942E-1
2.593157672E1,-8.647063255E0,2.242074728E0,-5.431707501E-1
2.595103714E1,-9.693324089E0,1.706680775E0,-1.331605792E0
2.597049756E1,-9.896116257E0,1.203589797E0,-1.798804402E0
2.598995787E1,-7.563114166E0,8.554340899E-2,-1.698904037E0
2.600941829E1,-3.372683525E0,-8.997012973E-1,-1.959123492E0
2.602887870E1,7.872386575E-1,-1.372283816E0,-1.838884234E0
2.604833902E1,3.842274904E0,-1.644467354E0,-1.292722464E0
2.606779943E1,5.525625706E0,-1.856232166E0,-9.469595551E-1
2.608725985E1,6.259624004E0,-1.301097274E0,-2.319243431E0
2.610672016E1,7.200601578E0,-2.907279432E-1,-3.522833109E0
2.612618058E1,9.434899330E0,1.184447184E-1,-3.123830080E0
2.614564099E1,2.091626167E1,-4.360919297E-1,-7.118647575E0
2.616510131E1,6.251727676E1,-3.522234917E0,8.650053740E-1
2.618456172E1,6.284868240E1,7.304090858E-1,-9.378069878E0
2.620402214E1,3.663830185E1,9.708877802E-1,-1.127617645E1
2.622348256E1,2.140200424E1,1.731805444E0,-8.810971260E0
2.624294287E1,1.700399590E1,1.130010486E0,-4.883152962E0
2.626240329E1,1.198624706E1,8.907282352E-1,-2.145165443E0
2.628186370E1,6.720242500E0,4.067798555E-1,-1.413560033E0
2.630132402E1,2.802593470E0,-5.222335458E-1,-1.228714466E0
2.632078443E1,2.548356056E-1,-1.107278705E0,-1.520638824E0
2.634024485E1,-1.605584025E0,-1.419542074E0,-1.840080619E0
2.635970516E1,-4.432105541E0,-1.011565804E0,-1.872383714E0
2.637916558E1,-8.590232849E0,3.649054468E-1,-2.230708838E0
2.639862599E1,-1.112483025E1,1.669592023E0,-9.224331379E-1
2.641808631E1,-1.062413216E1,1.456630826E0,2.380858511E-1
2.643754672E1,-7.502097130E0,-9.272187948E-2,3.164508045E-1
2.645700714E1,-4.427918434E0,-1.559522152E0,-2.183450609E-1
2.647646745E1,-1.843669891E0,-2.132603168E0,-1.555334777E-1
2.649592787E1,-1.094716340E-1,-2.274377823E0,-4.444667995E-1
2.651538829E1,1.854437590E0,-2.211566210E0,-1.722832322E0
2.653484870E1,6.323033810E0,-1.012762189E0,-1.040279627E0
2.655430902E1,1.532064533E1,1.261017561E0,1.070788130E-1
2.657376943E1,3.263869858E1,5.147559643E0,9.469595551E-1
2.659322985E1,5.734160233E1,8.609375954E0,-5.978467464E0
2.661269026E1,5.541477966E1,-4.564907551E0,-1.683649826E1
2.663215058E1,3.178804970E1,-5.893522263E0,-1.426840115E1
2.665161099E1,2.039941216E1,-3.935595036E0,-9.305686951E0
2.667107141E1,1.159502029E1,-1.544566989E0,-3.346362352E0
2.669053172E1,6.188437462E0,-7.609176040E-1,1.118644550E-1
2.670999214E1,1.969891191E0,-6.125625968E-1,1.091725349E0
2.672945256E1,-1.320838094E0,-5.778666735E-1,1.668993831E0
2.674891287E1,-4.303491592E0,-1.992024779E-1,2.958127022E0
2.676837329E1,-6.428916454E0,3.756731451E-1,1.984846354E0
2.678783370E1,-7.332805157E0,1.320838094E0,-6.334998012E-1
2.680729402E1,-7.972286701E0,1.950150490E0,-2.484946251E0
2.682675443E1,-7.850851059E0,1.822134495E0,-2.882154942E0
2.684621485E1,-5.384449005E0,1.222732425E0,-2.313261271E0
2.686567516E1,-2.611765862E0,5.910272002E-1,-1.613360643E0
2.688513558E1,-3.960121572E-1,-3.349951655E-2,-9.020941257E-1
2.690459599E1,1.316052437E0,-7.441678643E-1,-3.212364316E-1
2.692405641E1,2.790629387E0,-1.225125194E0,-6.442674994E-1
2.694351672E1,4.875376225E0,-1.015154958E0,-1.593619823E0
2.696297714E1,8.452646255E0,-6.909275651E-1,-1.216152072E0
2.698243756E1,1.526680660E1,-8.895317912E-1,-2.261217356E0
2.700189787E1,3.488256836E1,-6.227321029E-1,-3.005983353E0
2.702135829E1,7.075337219E1,-4.907679081E0,-1.649312782E1
2.704081870E1,5.381398392E1,-9.756733894E0,-1.908455467E1
2.706027902E1,2.282513428E1,-1.646261930E0,-1.156211948E1
2.707973943E1,1.147358418E1,1.851446509E0,-7.022934437E0
2.709919985E1,6.535397053E0,2.871985435E0,-3.128017426E0
2.711866027E1,5.120042324E0,2.929413080E0,-2.538784742E0
2.713812058E1,3.446861029E0,2.678765059E0,-1.446461320E0
2.715758099E1,1.516451359E0,2.329412937E0,-3.439682424E-1
2.717704141E1,-5.694918036E-1,1.727019787E0,2.135594189E-1
2.719650172E1,-3.867399693E0,-2.632104978E-2,7.298108935E-1
2.721596214E1,-8.042277336E0,-2.539382935E0,7.094719410E-1
2.723542256E1,-1.065284634E1,-3.172882795E0,-1.890329868E-1
2.725488297E1,-1.113200951E1,-2.213959217E0,-6.502495408E-1
2.727434329E1,-6.684948444E0,-1.472184181E0,-1.369292736E0
2.729380370E1,-3.087339401E0,-8.344969153E-1,-1.872981906E0
2.731326412E1,-5.455635786E-1,-5.210371017E-1,-2.112862349E0
2.733272443E1,1.480558991E0,-5.012963414E-1,-2.621337175E0
2.735218485E1,4.511667252E0,-6.879365444E-2,-1.456032634E0
2.737164526E1,1.173978615E1,1.387837172E0,1.510469317E0
2.739110558E1,2.890290451E1,1.014556766E0,5.972485542E0
2.741056599E1,5.974339676E1,-1.938784599E0,-2.996412039E0
2.743002641E1,5.557689667E1,4.887340367E-1,-1.723908997E1
2.744948683E1,3.106481934E1,-7.782655358E-1,-1.503171158E1
2.746894714E1,1.929153442E1,-1.055234790E0,-1.099083233E1
2.748840756E1,1.101476097E1,-1.992024779E-1,-5.024927616E0
2.750786797E1,6.856633186E0,-1.210768223E0,-1.933400750E0
2.752732839E1,2.723630428E0,-1.442872047E0,-5.365904570E-1
2.754678870E1,7.734799385E-1,-1.039681435E0,-2.117647976E-1
2.756624912E1,-1.361516118E0,-6.592226624E-1,6.029912829E-1
2.758570954E1,-3.843471289E0,-6.711867452E-1,8.404789567E-1
2.760516985E1,-6.251249313E0,5.383851007E-3,1.095314622E0
2.762463026E1,-8.220541954E0,9.984052777E-1,8.841479421E-1
2.764409068E1,-8.423334122E0,1.233500123E0,-3.954139352E-1
2.766355099E1,-7.415955544E0,1.156331539E0,-8.422735929E-1
2.768301141E1,-4.122833252E0,6.873382926E-1,-9.643075466E-1
2.770247183E1,-1.258026481E0,5.132604837E-1,-1.118644595E0
2.772193214E1,6.723831892E-1,3.469592929E-1,-1.022931695E0
2.774139256E1,1.564307809E0,-9.750752151E-2,-1.438684583E0
2.776085297E1,2.570489645E0,-3.080759048E-1,-2.045265198E0
2.778031339E1,4.610371113E0,-2.554338276E-1,-2.005185366E0
2.779977370E1,9.981659889E0,-1.016351461E0,-2.090130568E0
2.781923412E1,2.340300179E1,-3.820739508E0,-6.578467846E0
2.783869454E1,5.871567917E1,-6.766902447E0,-8.711668968E0
2.785815485E1,6.858367920E1,-3.771088600E0,-1.526501179E1
2.787761527E1,3.203630447E1,-1.140778184E0,-1.572383595E1
2.789707568E1,1.815434456E1,2.364108801E0,-1.041176987E1
2.791653610E1,1.381735420E1,1.127019525E0,-3.764508247E0
2.793599641E1,1.062652493E1,-2.075175524E0,-1.485344648E0
2.795545683E1,6.597609997E0,-2.707478762E0,-6.807580590E-1
2.797491724E1,3.438486099E0,-2.308475733E0,-1.866401732E-1
2.799437756E1,6.771687865E-1,-1.777269006E0,-3.254238665E-1
2.801383797E1,-2.223530531E0,-9.008977413E-1,-4.773681164E-1
2.803329839E1,-4.540380955E0,6.059823632E-1,-1.338186026E0
2.805275881E1,-8.004590034E0,1.377069473E0,-7.441678643E-1
2.807221912E1,-1.158544922E1,2.172683001E0,-7.734799385E-1
2.809167954E1,-1.003190899E1,2.648256540E0,-6.077769399E-1
2.811113995E1,-6.314060688E0,1.518245935E0,-5.874379873E-1
2.813060026E1,-2.926422119E0,7.178467698E-3,-5.144568682E-1
2.815006068E1,-1.728814393E-1,-8.566305041E-1,-1.202393398E-1
2.816952110E1,1.971087694E0,-1.435693622E0,-9.990034252E-2
2.818898152E1,3.528815269E0,-2.003390789E0,-7.118647099E-1
2.820844183E1,6.248856544E0,-1.407577872E0,-7.567301393E-1
2.822790224E1,1.129771233E1,8.255238086E-2,-1.788634956E-1
2.824736266E1,2.016491508E1,2.150549412E0,-2.230110645E0
2.826682297E1,4.491866302E1,4.026522160E0,3.314059377E-1
2.828628339E1,6.102714539E1,-1.979462504E0,-1.392562962E1
2.830574381E1,4.406861496E1,-6.692126751E0,-1.731745529E1
2.832520422E1,2.363929367E1,-4.303491592E0,-1.281177044E1
2.834466454E1,1.352662659E1,-1.866999865E0,-6.165107727E0
2.836412495E1,8.386843681E0,2.392822690E-2,-5.264210105E-1
2.838358537E1,3.965505362E0,6.400800347E-1,1.537986755E0
2.840304579E1,6.927221417E-1,8.374879360E-1,2.056631088E0
2.842250610E1,-1.943570137E0,9.535398483E-1,2.608774900E0
2.844196652E1,-5.233103275E0,8.572286963E-1,2.485544443E0
2.846142693E1,-6.912266254E0,4.139583111E-1,8.285148144E-1
2.848088724E1,-8.120641708E0,7.992027402E-1,-1.733001828E0
2.850034766E1,-8.418548584E0,9.523434043E-1,-3.620938778E0
2.851980808E1,-7.791628838E0,2.117647976E-1,-3.733401537E0
2.853926849E1,-5.214558601E0,-8.548358679E-1,-2.869592667E0
2.855872881E1,-2.317448616E0,-1.144965649E0,-1.698305845E0
2.857818922E1,5.766702294E-1,-8.141579032E-1,-5.994020700E-1
2.859764964E1,2.648256540E0,-2.829512656E-1,3.332005441E-1
2.861710995E1,3.601198196E0,-2.333002165E-2,-7.537391037E-2
2.863657037E1,5.371288776E0,-1.399801224E-1,-1.920240164E0
2.865603079E1,7.311867714E0,-2.315055877E-1,-1.837089539E0
2.867549120E1,1.356850052E1,-7.842476368E-1,-4.536193371E0
2.869495152E1,4.065943909E1,-1.086341500E0,-1.123011494E1
2.871441193E1,7.622037506E1,-4.122833252E0,-7.874181271E0
2.873387235E1,5.319124985E1,-5.842076302E0,-1.652184296E1
2.875333277E1,2.428415871E1,-1.523031592E0,-1.295773315E1
2.877279308E1,1.488455296E1,1.166501045E-1,-7.284948349E0
2.879225349E1,1.041775131E1,-7.100701332E-1,-3.131008387E0
2.881171391E1,5.511268616E0,-7.046862841E-1,-1.227517962E0
2.883117422E1,2.533401012E0,-5.868397355E-1,-8.344969153E-1
2.885063464E1,1.716850251E-1,-5.240281820E-1,-7.728816867E-1
2.887009506E1,-1.997408748E0,1.088734269E-1,-9.930213690E-1
2.888955547E1,-4.742574692E0,1.217348576E0,-9.439685345E-1
2.890901579E1,-7.305885792E0,1.906481385E0,-1.756929994E0
2.892847620E1,-9.917053223E0,1.980658889E0,-2.395813704E0
2.894793662E1,-1.231944752E1,1.884945989E0,-1.599003673E0
2.896739693E1,-8.197212219E0,9.523434043E-1,-5.551348329E-1
2.898685735E1,-4.086941242E0,-4.025924206E-1,-4.241278172E-1
2.900631777E1,-1.019342422E0,-1.478764415E0,-4.205385745E-1
2.902577808E1,1.634896040E0,-1.500299811E0,-3.583251834E-1
2.904523849E1,8.416753411E-1,-4.175475538E-1,-4.965107143E-2
2.906469891E1,6.134000778E0,8.853443861E-1,-1.788634896E0
2.908415933E1,1.373719501E1,2.333600283E0,-3.838685751E0
2.910361964E1,2.749891663E1,2.548954248E0,-2.255833626E0
2.912308006E1,5.428836060E1,-1.538584948E0,-3.875176191E0
2.914254047E1,6.265306854E1,-8.914461136E0,-1.141496086E1
2.916200089E1,3.725564957E1,-7.399804115E0,-1.551386547E1
2.918146131E1,1.748854256E1,-2.194218397E0,-1.077906799E1
2.920092162E1,1.029691410E1,4.755735099E-1,-5.374877930E0
2.922038204E1,7.134799004E0,9.684949517E-1,-9.816554785E-1
2.923984245E1,4.074378967E0,4.277170599E-1,-1.141974568E0
2.925930276E1,1.003190875E0,3.170489967E-1,3.044866920E-1
2.927876318E1,-2.750549555E0,5.443671346E-1,2.186441660E0
2.929822360E1,-6.040680885E0,1.126421213E0,2.892922640E0
2.931768391E1,-7.173682213E0,1.101894855E0,1.081555843E0
2.933714433E1,-7.943572998E0,3.583251834E-1,-1.814357758E0
2.935660474E1,-8.100302696E0,6.819544733E-2,-3.162713289E0
2.937606516E1,-7.381857872E0,-2.997010350E-1,-3.133999348E0
2.939552547E1,-5.951548100E0,-8.063812256E-1,-2.580659151E0
2.941498589E1,-1.564906001E0,-4.295116663E-1,-1.333998680E0
2.943444631E1,2.933002472E0,4.366901219E-1,-4.785645381E-2
2.945390662E1,5.815755367E0,5.485545993E-1,2.141576260E-1
2.947336704E1,6.902096748E0,3.445664644E-1,-3.373879790E-1
2.949282745E1,6.553941250E0,1.004985496E-1,-1.874178290E0
2.951228777E1,5.434100151E0,2.943171859E-1,-3.918845177E0
2.953174818E1,6.750152588E0,4.887340367E-1,-6.519245148E0
2.955120860E1,1.246720409E1,-2.727817893E-1,-8.078168869E0
2.957066902E1,4.007858276E1,-2.525026083E0,-3.710669756E0
2.959012933E1,7.734320831E1,-3.246462107E0,-5.090730190E0
2.960958974E1,5.703771210E1,-6.404389858E0,-1.414277840E1
2.962905016E1,2.561456871E1,-4.487739086E0,-5.088935375E0
2.964851058E1,1.542652798E1,-2.635095835E0,-1.427916884E0
2.966797089E1,1.035494041E1,-1.844268084E0,-1.489532113E0
2.968743131E1,5.922834396E0,-4.767699242E-1,-2.352144718E0
2.970689172E1,3.716053486E0,-5.982056726E-3,-3.470191002E0
2.972635204E1,2.304288149E0,2.303091735E-1,-5.156532764E0
2.974581245E1,1.082154036E0,1.152742267E0,-7.068397999E0
2.976527287E1,-2.176870346E0,2.391027927E0,-5.707480431E0
2.978473329E1,-7.321439266E0,2.106880426E0,-1.485942841E0
2.980419360E1,-1.089452171E1,6.574280262E-1,-2.261217386E-1
2.982365402E1,-1.386521053E1,6.705885530E-1,1.573280931E0
2.984311443E1,-9.249456406E0,4.683950245E-1,2.412563324E0
2.986257485E1,-3.126222849E0,-7.537391037E-2,1.523031592E0
2.988203516E1,5.527420044E-1,-8.021938205E-1,1.115653515E0
2.990149558E1,3.499503136E0,-1.576870084E0,7.812566161E-1
2.992095599E1,5.009374142E0,-1.601396561E0,1.369891018E-1
2.994041631E1,4.436891556E0,-8.853443861E-1,-4.701896608E-1
2.995987672E1,3.354737282E0,-3.020938635E-1,-1.917249203E0
2.997933714E1,4.552943230E0,8.853443712E-2,-2.641077995E0
2.999879756E1,7.848458290E0,1.052841991E-1,-3.217149973E0
3.001825787E1,1.701835251E1,-5.461617708E-1,-3.457628727E0
3.003771829E1,3.839523315E1,-3.065205812E0,-1.067198873E0
3.005717870E1,5.542494965E1,-4.196412563E0,-1.655773354E1
3.007663912E1,3.119881821E1,-3.298506021E0,-1.051286602E1
3.009609943E1,1.428036594E1,1.850250125E0,-4.682754040E0
3.011555985E1,7.322037220E0,3.923630953E0,9.230313301E-1
3.013502026E1,5.419743061E0,1.350748420E0,2.502892494E0
3.015448068E1,4.418945312E0,-3.332005441E-1,2.897109985E0
3.017394099E1,2.805584431E0,-6.233302951E-1,2.502892494E0
3.019340141E1,1.688136339E0,-1.284347534E0,2.189432621E0
3.021286183E1,1.636092424E0,-1.861017823E0,1.105484009E0
3.023232224E1,2.675175667E0,-1.774278045E0,-1.670190215E0
3.025178256E1,3.376870871E0,-1.226321578E0,-4.784449100E0
3.027124297E1,2.873181820E0,-5.264210105E-1,-5.764309883E0
3.029070339E1,1.774278045E0,2.787638307E-1,-5.601597786E0
3.031016370E1,2.362314224E0,1.339382529E0,-5.401797295E0
3.032962412E1,5.386243820E0,2.128415823E0,-4.636094093E0
3.034908454E1,1.347637749E1,2.216950178E0,-3.903291941E0
3.036854495E1,2.965843773E1,1.259222865E0,-2.129014015E0
3.038800526E1,3.289413452E1,-3.426522017E0,-5.584847927E0
3.040746568E1,2.119083786E1,-5.419145107E0,-4.695316315E0
3.042692610E1,1.056610680E1,-2.997608662E0,-3.361915827E0
3.044638652E1,4.310669899E0,-1.073180914E0,-3.407379389E0
3.046584683E1,9.176474810E-1,-9.750752151E-2,-2.663211584E0
3.048530724E1,1.088734269E-1,1.272383451E0,-9.900303483E-1
3.050476766E1,3.888336718E-1,2.854637384E0,-6.520441920E-2
3.052422808E1,1.629512191E0,3.953541279E0,3.876372576E-1
3.054368839E1,4.773681164E0,3.589233875E0,3.427718580E-1
3.056314881E1,9.354142189E0,1.892124534E0,3.152543902E-1
3.058260922E1,1.350509071E1,2.985046208E-1,-5.186443329E-1
3.060206954E1,1.734258080E1,-1.578066587E0,-2.324627161E0
3.062152995E1,1.925923157E1,-3.297309637E0,-4.004986763E0
3.064099037E1,1.781815338E1,-3.058027267E0,-3.863212109E0
3.066045079E1,1.386162186E1,-1.630110383E0,-2.766103029E0
3.067991120E1,1.028554821E1,-8.554341197E-1,-2.240280151E0
3.069937152E1,7.646862984E0,-4.396811724E-1,-1.738385677E0
3.071883193E1,5.991029739E0,3.170489892E-2,-1.195214868E0
3.073829235E1,5.443073273E0,4.097708762E-1,-1.295713425E0
3.075775277E1,5.726622581E0,4.079762697E-1,-1.374078393E0
3.077721308E1,6.890132904E0,7.531409264E-1,-1.746162295E0
3.079667349E1,7.789834023E0,5.102694035E-1,-1.212562919E0
3.081613391E1,8.870193481E0,-8.733802289E-2,-1.663609982E0
3.083559433E1,1.047458076E1,2.476571500E-1,-2.117648125E0
3.085505474E1,1.214177990E1,1.373480201E0,-1.413560033E0
3.087451506E1,1.311027527E1,1.842473388E0,-5.246263742E-1
3.089397547E1,1.284048462E1,1.703689694E0,-2.434697002E-1
3.091343589E1,1.174217892E1,1.504487276E0,-5.868397355E-1
3.093289631E1,1.010249710E1,8.847461939E-1,-9.690931439E-1
3.095235662E1,8.700901031E0,2.069791555E-1,-1.125823021E0
3.097181704E1,7.956733704E0,1.154536903E-1,-1.091725349E0
3.099127745E1,8.309675217E0,9.756734371E-1,-1.622931957E0
3.101073787E1,9.910472870E0,2.015354872E0,-2.243271112E0
3.103019818E1,1.249053383E1,1.877169371E0,-2.662015200E0
3.104965860E1,1.305942822E1,8.123632669E-1,-3.279363394E0
3.106911902E1,1.124806118E1,-3.661018610E-1,-3.603590965E0
3.108857943E1,8.632107735E0,-1.212562919E0,-3.448057413E0
3.110803974E1,6.792625427E0,-1.814357758E0,-2.822932482E0
3.112750016E1,5.845067501E0,-2.030908108E0,-1.876571178E0
3.114696058E1,5.798407555E0,-1.815554142E0,-1.036092162E0
3.116642099E1,6.698707104E0,-1.540977836E0,-7.310073376E-1
3.118588141E1,8.464012146E0,-1.750349760E0,-1.157527924E0
3.120534172E1,1.045603657E1,-1.935195327E0,-2.038086653E0
3.122480214E1,1.175055408E1,-1.685145378E0,-2.948555708E0
3.124426256E1,1.193300629E1,-1.204187989E0,-3.296113253E0
3.126372297E1,1.139222908E1,-5.946164131E-1,-2.900100946E0
3.128318329E1,1.082572746E1,1.914258115E-2,-2.008176327E0
3.130264370E1,1.042492962E1,1.956132501E-1,-1.055832982E0
3.132210412E1,1.035135078E1,-2.009970993E-1,-6.299105883E-1
3.134156454E1,1.052303600E1,-7.118647099E-1,-9.625129104E-1
3.136102495E1,1.057208824E1,-1.130010486E0,-1.341177106E0
3.138048526E1,1.010070229E1,-1.473380566E0,-1.594218135E0
3.139994568E1,9.112466812E0,-1.556531072E0,-1.556531072E0
3.141940610E1,8.072785378E0,-1.347757339E0,-1.185643673E0
3.143886652E1,7.590033531E0,-8.973084688E-1,-8.039883971E-1
3.145832693E1,7.679764271E0,-2.889333367E-1,-5.407779217E-1
3.147778724E1,8.309076309E0,1.160518974E-1,-4.935196638E-1
3.149724766E1,9.337990761E0,2.667997181E-1,-7.124629617E-1
3.151670808E1,1.052303600E1,2.967100143E-1,-1.046261668E0
3.153616849E1,1.127318573E1,1.920240223E-1,-1.358525038E0
3.155562891E1,1.123011494E1,-2.961117923E-1,-1.501496196E0
3.157508922E1,1.073420238E1,-9.738788009E-1,-1.342373490E0
3.159454964E1,1.021555805E1,-1.488933921E0,-1.054636598E0
3.161401006E1,9.917053223E0,-1.786840320E0,-9.900303483E-1
3.163347047E1,9.876375198E0,-1.634297848E0,-1.110269666E0
3.165293089E1,9.826724052E0,-1.195813060E0,-1.223928809E0
3.167239131E1,9.868598938E0,-6.448656917E-1,-1.295115232E0
3.169185162E1,9.878170013E0,-6.939185411E-2,-1.152742267E0
3.171131204E1,9.795618057E0,3.481557071E-1,-8.548358679E-1
3.173077245E1,9.674779892E0,3.960121572E-1,-5.593222976E-1
3.175023287E1,9.448657990E0,-1.316052489E-2,-3.750749528E-1
3.176969329E1,9.361918449E0,-6.185446382E-1,-4.223332107E-1
3.178915360E1,9.311071396E0,-1.131805062E0,-3.738785386E-1
3.180861402E1,9.345169067E0,-1.614557028E0,-4.211367965E-1
3.182807443E1,9.595816612E0,-1.848455548E0,-5.383850932E-1
3.184753485E1,9.930213928E0,-1.831107497E0,-5.772684813E-1
3.186699516E1,1.019222832E1,-1.701895118E0,-6.257231236E-1
3.188645558E1,1.031306553E1,-1.416550994E0,-6.652047038E-1
3.190591599E1,1.016291618E1,-1.064207911E0,-6.765705943E-1
3.192537641E1,9.851250648E0,-9.343972206E-1,-7.136593461E-1
3.194483683E1,9.446864128E0,-1.068993568E0,-7.262216806E-1
3.196429724E1,9.136395454E0,-1.358525038E0,-7.501499057E-1
3.198375756E1,9.019744873E0,-1.720439434E0,-8.219345808E-1
3.200321797E1,9.081359863E0,-2.063809633E0,-9.421738982E-1
3.202267839E1,9.269794464E0,-2.109273195E0,-1.229910851E0
3.204213881E1,9.455238342E0,-1.836491346E0,-1.539781332E0
3.206159912E1,9.665208817E0,-1.478166223E0,-1.774278045E0
3.208105954E1,9.846465111E0,-1.332802176E0,-1.917249203E0
3.210051995E1,9.963115692E0,-1.414158225E0,-1.966900229E0
3.211998037E1,1.000558758E1,-1.651047587E0,-2.072782516E0
3.213944079E1,9.910472870E0,-1.969292998E0,-2.299502611E0
3.215890110E1,9.756733894E0,-2.060220242E0,-2.457428932E0
3.217836152E1,9.690333366E0,-1.609771490E0,-2.436491728E0
3.219782193E1,9.796813965E0,-8.739784956E-1,-2.455634356E0
3.221728235E1,9.854840279E0,-7.417750359E-2,-2.461018085E0
3.223674276E1,9.589237213E0,5.437689424E-1,-2.432304144E0
3.225620308E1,9.287142754E0,1.086341500E0,-2.311466694E0
3.227566349E1,9.345767021E0,1.689332843E0,-2.140978098E0
3.229512391E1,9.583254814E0,2.188834429E0,-1.886142492E0
3.231458433E1,9.696913719E0,2.358126640E0,-1.429711580E0
3.233404474E1,9.479764938E0,2.039283037E0,-9.529415965E-1
3.235350506E1,9.195018768E0,1.183848977E0,-5.694918036E-1
3.237296547E1,9.342776299E0,5.551348329E-1,-2.165504545E-1
3.239242589E1,1.005523872E1,5.180460811E-1,1.812563092E-1
3.241188631E1,1.128873920E1,7.351947427E-1,2.991028428E-1
3.243134662E1,1.240618706E1,8.632107973E-1,2.333002090E-1
3.245080704E1,1.264487171E1,7.812566161E-1,-1.878365725E-1
3.247026745E1,1.212622738E1,5.700899959E-1,-7.489534616E-1
3.248972787E1,1.095673466E1,2.919243574E-1,-9.649057388E-1
3.250918829E1,1.009352398E1,9.152546525E-2,-1.054636598E0
3.252864860E1,9.663414001E0,-1.525424421E-1,-1.063609719E0
3.254810902E1,9.407382011E0,-2.374876440E-1,-1.000798106E0
3.256756943E1,9.141778946E0,-1.740778536E-1,-1.041476011E0
3.258702985E1,8.949754715E0,-1.758724600E-1,-9.678967595E-1
3.260649027E1,8.990432739E0,-1.573280841E-1,-8.542376757E-1
3.262595058E1,9.228518486E0,-1.686939895E-1,-7.387840152E-1
3.264541099E1,9.381659508E0,-6.221338734E-2,-6.275177598E-1
3.266487141E1,9.400203705E0,1.633101404E-1,-7.357929349E-1
3.268433183E1,9.654440880E0,2.255235314E-1,-1.096511006E0
3.270379214E1,9.929615974E0,1.381855011E-1,-1.398604870E0
3.272325256E1,1.008215809E1,-1.082752272E-1,-1.557129383E0
3.274271297E1,1.013479996E1,-2.961117923E-1,-1.525424480E0
3.276217339E1,1.005224800E1,-2.410768867E-1,-1.362114310E0
3.278163381E1,9.877572060E0,-4.067798331E-2,-1.180259824E0
3.280109412E1,9.664610863E0,3.026920557E-1,-1.110269666E0
3.282055454E1,9.389435768E0,6.903293133E-1,-1.161715388E0
3.284001495E1,9.168698311E0,9.954141974E-1,-1.355534077E0
3.285947537E1,9.208179474E0,1.237687469E0,-1.505085468E0
3.287893579E1,9.312267303E0,1.396810174E0,-1.518844128E0
3.289839610E1,9.430113792E0,1.491326690E0,-1.458425403E0
3.291785652E1,9.538987160E0,1.453639746E0,-1.439282775E0
3.293731693E1,9.756733894E0,1.261615753E0,-1.429711580E0
3.295677735E1,1.006062317E1,1.051047325E0,-1.444068432E0
3.297623776E1,1.015513897E1,8.955138922E-1,-1.399801254E0
3.299569808E1,9.949356079E0,8.757730722E-1,-1.300499082E0
3.301515849E1,9.609575272E0,9.786644578E-1,-1.171884894E0
3.303461891E1,9.332008362E0,1.027119160E0,-1.003190875E0
3.305407933E1,9.089137077E0,9.547362328E-1,-9.882357717E-1
3.307353964E1,8.885746956E0,8.458628058E-1,-1.210768223E0
3.309300006E1,8.849256516E0,8.213363886E-1,-1.521835208E0
3.311246047E1,9.016156197E0,7.836494446E-1,-1.864607096E0
3.313192089E1,9.518050194E0,6.640082598E-1,-2.169692039E0
3.315138131E1,1.025982571E1,6.412764788E-1,-2.267199516E0
3.317084162E1,1.101715374E1,9.200403094E-1,-1.942971945E0
3.319030204E1,1.154835987E1,1.299900889E0,-1.402194023E0
3.320976245E1,1.155494022E1,1.598405480E0,-1.009172916E0
3.322922287E1,1.098724365E1,1.820339799E0,-9.188438654E-1
3.324868318E1,9.876375198E0,1.741376638E0,-1.005583763E0
3.326814360E1,8.675776482E0,1.587637782E0,-1.247258782E0
3.328760402E1,7.823931694E0,1.469791293E0,-1.409372568E0
3.330706443E1,7.645666599E0,1.472184181E0,-1.731805444E0
3.332652485E1,8.373682976E0,1.450648785E0,-2.091925144E0
3.334598516E1,9.881759644E0,8.410771489E-1,-2.188236237E0
3.336544558E1,1.105005455E1,1.016949639E-1,-2.300698996E0
3.338490599E1,1.121994495E1,-6.610172391E-1,-2.569891453E0
3.340436641E1,1.104108143E1,-1.348953724E0,-2.661417007E0
3.342382683E1,1.050628567E1,-1.609173179E0,-2.106880426E0
3.344328714E1,9.547960281E0,-1.539183140E0,-1.247856975E0
3.346274756E1,8.611768723E0,-1.409970760E0,-7.226324677E-1
3.348220797E1,8.235497475E0,-1.220937729E0,-6.317051649E-1
3.350166839E1,8.570492744E0,-1.016949654E0,-8.309076428E-1
3.352112870E1,9.343972206E0,-1.028315544E0,-1.369292736E0
3.354058912E1,9.973882675E0,-1.192822099E0,-1.957927108E0
3.356004954E1,1.005882835E1,-1.185045362E0,-2.264208317E0
3.357950995E1,9.874580383E0,-9.541380405E-1,-2.270190477E0
3.359897037E1,9.685547829E0,-8.261220455E-1,-2.035693884E0
3.361843068E1,9.576076508E0,-1.094118118E0,-1.721037745E0
3.363789110E1,9.537193298E0,-1.689332843E0,-1.484148264E0
3.365735152E1,9.524630547E0,-2.321038008E0,-1.493719578E0
3.367681193E1,9.759127617E0,-2.407179594E0,-1.690529227E0
3.369627235E1,9.849455833E0,-1.790429592E0,-1.746162295E0
3.371573266E1,9.860223770E0,-1.054038405E0,-1.816152334E0
3.373519308E1,9.981060982E0,-5.234299302E-1,-1.715653777E0
3.375465349E1,1.007378292E1,-5.581258535E-1,-1.508076429E0
3.377411391E1,1.005105114E1,-1.236491084E0,-1.247258782E0
3.379357433E1,9.859027863E0,-1.731207132E0,-1.064207911E0
3.381303474E1,9.513862610E0,-1.896311998E0,-9.158528447E-1
3.383249506E1,9.104091644E0,-1.820339799E0,-7.818548083E-1
3.385195547E1,8.897710800E0,-1.677368641E0,-9.026923180E-1
3.387141589E1,9.000003815E0,-1.640279889E0,-1.128215909E0
3.389087631E1,9.148957253E0,-1.774876237E0,-1.240080357E0
3.391033672E1,9.391828537E0,-1.919043779E0,-1.293918848E0
3.392979704E1,9.742377281E0,-1.895115495E0,-1.399203062E0
3.394925745E1,1.001097202E1,-1.772483349E0,-1.408774376E0
3.396871787E1,1.011924744E1,-1.784447432E0,-1.367498159E0
3.398817829E1,1.005344391E1,-1.756331801E0,-1.441675663E0
3.400763870E1,9.981060982E0,-1.610369682E0,-1.493719578E0
3.402709902E1,9.841081619E0,-1.552941918E0,-1.463211060E0
3.404655943E1,9.695717812E0,-1.517647743E0,-1.430907965E0
3.406601985E1,9.583852768E0,-1.658824325E0,-1.384846091E0
3.408548026E1,9.523433685E0,-1.980658889E0,-1.200000525E0
3.410494068E1,9.527023315E0,-2.198405743E0,-1.082752228E0
3.412440110E1,9.765109062E0,-2.155334949E0,-1.068993568E0
3.414386141E1,1.019462109E1,-1.761715651E0,-1.110867858E0
3.416332183E1,1.040459061E1,-1.191027522E0,-1.192822099E0
3.418278224E1,1.024965572E1,-7.160521746E-1,-1.233500123E0
3.420224266E1,9.803394318E0,-6.484549642E-1,-1.215553880E0
3.422170308E1,9.390632629E0,-9.678967595E-1,-1.274776220E0
3.424116339E1,9.427721024E0,-1.517049551E0,-1.403988719E0
3.426062381E1,9.926624298E0,-2.021337032E0,-1.568495274E0
3.428008422E1,1.034955597E1,-2.288734913E0,-1.670788407E0
3.429954464E1,1.016770172E1,-2.284547329E0,-1.679761529E0
3.431900506E1,9.565308571E0,-1.792822361E0,-1.478166223E0
3.433846547E1,9.091529846E0,-1.141974568E0,-1.287338614E0
3.435792579E1,8.822935104E0,-6.388836503E-1,-1.224527001E0
3.437738620E1,8.840881348E0,-2.811566591E-1,-1.308275819E0
3.439684662E1,9.045467377E0,-1.561316848E-1,-1.444666624E0
3.441630704E1,9.391828537E0,-2.673979402E-1,-1.635494232E0
3.443576745E1,9.827322960E0,-5.102694035E-1,-1.857428551E0
3.445522777E1,1.014018440E1,-6.484549642E-1,-2.000998020E0
3.447468818E1,1.013898754E1,-5.694918036E-1,-2.132603168E0
3.449414860E1,9.862616539E0,-1.740778536E-1,-2.203191519E0
3.451360902E1,9.570692062E0,1.842473447E-1,-2.193022013E0
3.453306943E1,9.405587196E0,3.254238665E-1,-2.230708838E0
3.455252985E1,9.286544800E0,2.691925466E-1,-2.292324066E0
3.457199016E1,9.235696793E0,2.099701911E-1,-2.248655081E0
3.459145058E1,9.329017639E0,2.392822653E-1,-2.114656925E0
3.461091099E1,9.559925079E0,4.031906128E-1,-1.901097536E0
3.463037141E1,9.890133858E0,6.580262184E-1,-1.740778446E0
3.464983183E1,1.026760197E1,8.871390224E-1,-1.681556106E0
3.466929214E1,1.064686394E1,8.739784956E-1,-1.485942841E0
3.468875256E1,1.088794136E1,5.276173949E-1,-1.183250785E0
3.470821297E1,1.081256771E1,2.033899277E-1,-1.147956610E0
3.472767339E1,1.030349445E1,9.391828626E-2,-1.256231904E0
3.474713381E1,9.673583984E0,8.494520187E-2,-1.409372568E0
3.476659412E1,9.299705505E0,3.768695518E-2,-1.315454245E0
3.478605454E1,9.151947975E0,-1.393819153E-1,-1.118644595E0
3.480551495E1,9.109476089E0,-3.332005441E-1,-9.044869542E-1
3.482497537E1,9.215357780E0,-4.408775866E-1,-8.482556343E-1
3.484443579E1,9.388837814E0,-4.414757788E-1,-8.787640929E-1
3.486389610E1,9.671191216E0,-3.738785386E-1,-9.122636318E-1
3.488335652E1,1.004267693E1,-2.572284341E-1,-8.518448472E-1
3.490281693E1,1.021914768E1,-1.908276081E-1,-8.027920127E-1
3.492227735E1,1.021795082E1,-7.716853172E-2,-8.787640929E-1
3.494173776E1,1.008514881E1,3.888336942E-2,-9.559326172E-1
3.496119818E1,9.925428391E0,1.124626622E-1,-9.930213690E-1
3.498065849E1,9.802198410E0,2.231307179E-1,-1.039083242E0
3.500011891E1,9.679565430E0,2.189432681E-1,-1.080957651E0
3.501957933E1,9.699306488E0,3.409772366E-2,-1.037288666E0
3.503903974E1,9.863214493E0,-2.333002090E-1,-9.236295223E-1
3.505850016E1,1.009531879E1,-4.127618968E-1,-8.482556343E-1
3.507796047E1,1.022931671E1,-3.086741269E-1,-8.997012973E-1
3.509742089E1,1.027358437E1,-1.615155302E-2,-9.858429432E-1
3.511688131E1,1.030229759E1,3.050848842E-2,-1.065404296E0
3.513634172E1,1.020658493E1,-5.742774159E-2,-1.280758262E0
3.515580214E1,1.006959629E1,-1.256231871E-2,-1.421336651E0
3.517526245E1,9.805189133E0,1.716850251E-1,-1.408774376E0
3.519472287E1,9.470791817E0,4.103690982E-1,-1.348953724E0
3.521418329E1,9.278767586E0,6.209374666E-1,-1.243071318E0
3.523364370E1,9.181260109E0,7.477570772E-1,-1.042672515E0
3.525310412E1,9.287740707E0,7.393822074E-1,-9.421738982E-1
3.527256454E1,9.580264091E0,6.323033571E-1,-8.620143533E-1
3.529202485E1,9.943972588E0,3.517449200E-1,-8.297112584E-1
3.531148526E1,1.023769188E1,1.172483116E-1,-8.889335990E-1
3.533094568E1,1.034297562E1,-7.238288224E-2,-9.984052777E-1
3.535040610E1,1.024905777E1,-1.489532143E-1,-1.054038405E0
3.536986652E1,9.969097137E0,6.580262445E-3,-1.041476011E0
3.538932683E1,9.706484795E0,2.255235314E-1,-9.667003751E-1
3.540878724E1,9.385847092E0,4.223332107E-1,-8.656035662E-1
3.542824766E1,9.254839897E0,5.599204898E-1,-7.962117195E-1
3.544770808E1,9.357132912E0,5.742774606E-1,-7.112665176E-1
3.546716849E1,9.575477600E0,4.031906128E-1,-6.532405615E-1
3.548662891E1,9.796813965E0,1.770688742E-1,-6.394818425E-1
3.550608922E1,9.957731247E0,-1.854437590E-2,-6.424728632E-1
3.552554964E1,1.003071213E1,-7.238288224E-2,-6.927221417E-1
3.554501006E1,1.004626560E1,1.136590727E-2,-6.861419082E-1
3.556447047E1,9.871589661E0,9.451649338E-2,-5.832505226E-1
3.558393089E1,9.654440880E0,1.483550072E-1,-6.071787477E-1
3.560339131E1,9.686145782E0,8.195417374E-2,-6.699903607E-1
3.562285162E1,9.792028427E0,-8.135596663E-2,-6.897311211E-1
3.564231204E1,9.801599503E0,-1.716850251E-1,-6.969096065E-1
3.566177245E1,9.798608780E0,-2.039881349E-1,-7.094719410E-1
3.568123287E1,9.820742607E0,-1.926222295E-1,-6.317051649E-1
3.570069329E1,9.891928673E0,-1.298106313E-1,-5.557330847E-1
3.572015370E1,9.855438232E0,-4.127619043E-2,-5.066801906E-1
3.573961402E1,9.750752449E0,2.691925503E-2,-4.965106845E-1
3.575907443E1,9.725627899E0,-5.623133108E-2,-5.670989752E-1
3.577853485E1,9.729815483E0,-2.015953064E-1,-6.837490797E-1
3.579799527E1,9.780064583E0,-2.985046208E-1,-7.244270444E-1
3.581745568E1,9.841679573E0,-2.997010350E-1,-6.777670383E-1
3.583691610E1,9.849455833E0,-2.662015259E-1,-6.011967063E-1
3.585637652E1,9.772886276E0,-2.919243574E-1,-5.599204898E-1
3.587583683E1,9.716055870E0,-2.985046208E-1,-5.389832854E-1
3.589529724E1,9.722038269E0,-2.667997181E-1,-5.527420044E-1
3.591475766E1,9.869196892E0,-2.865405083E-1,-6.017948985E-1
3.593421808E1,9.943972588E0,-3.661018610E-1,-5.653043389E-1
3.595367849E1,9.906884193E0,-4.438686073E-1,-5.276173949E-1
3.597313891E1,9.690333366E0,-4.510470629E-1,-6.652047038E-1
3.599259933E1,9.445667267E0,-5.270192027E-1,-6.125625968E-1
3.601205964E1,9.349954605E0,-6.891329288E-1,-5.012963414E-1
3.603152006E1,9.446864128E0,-8.255237937E-1,-3.720839322E-1
3.605098047E1,9.753743172E0,-8.656035662E-1,-2.482553422E-1
3.607044089E1,9.924830437E0,-7.154539824E-1,-1.872383654E-1
3.608990131E1,9.854242325E0,-4.462614357E-1,-2.057827413E-1
3.610936172E1,9.684949875E0,-3.002992272E-1,-3.080759048E-1
3.612882214E1,9.541379929E0,-3.421736360E-1,-3.463610709E-1
3.614828245E1,9.522237778E0,-5.066801906E-1,-3.565305769E-1
3.616774287E1,9.658628464E0,-6.412764788E-1,-3.086741269E-1
3.618720329E1,9.783653259E0,-5.736792088E-1,-2.895315289E-1
3.620666370E1,9.962516785E0,-3.535395563E-1,-3.068794906E-1
3.622612412E1,1.003669453E1,-2.153540403E-1,-3.008974493E-1
3.624558454E1,1.000199890E1,-2.350948304E-1,-3.559323549E-1
3.626504495E1,9.820143700E0,-3.601198196E-1,-3.463610709E-1
3.628450537E1,9.787840843E0,-4.618147612E-1,-3.481557071E-1
3.630396568E1,9.811769485E0,-3.900300860E-1,-3.260220885E-1
3.632342610E1,9.761520386E0,-2.775674164E-1,-2.895315289E-1
3.634288652E1,9.883553505E0,-2.452643216E-1,-3.445664644E-1
3.636234693E1,1.001216793E1,-2.907279432E-1,-3.918247223E-1
3.638180735E1,1.010010433E1,-4.175475538E-1,-2.488535494E-1
3.640126776E1,1.009771156E1,-4.582255483E-1,-2.673979402E-1
3.642072818E1,9.985847473E0,-4.151547253E-1,-3.056831062E-1
3.644018849E1,9.808777809E0,-4.444667995E-1,-3.080759048E-1
3.645964891E1,9.635298729E0,-5.371887088E-1,-3.194418252E-1
3.647910933E1,9.503094673E0,-6.083751321E-1,-2.943171859E-1
3.649856974E1,9.487542152E0,-5.832505226E-1,-2.596212626E-1
3.651803016E1,9.597013474E0,-5.288137794E-1,-2.231307179E-1
3.653749058E1,9.891330719E0,-4.773681164E-1,-2.536391914E-1
3.655695099E1,1.023709393E1,-4.187439680E-1,-3.260220885E-1
3.657641131E1,1.050329494E1,-3.481557071E-1,-3.996013701E-1
3.659587172E1,1.048714352E1,-2.739782035E-1,-4.540380836E-1
3.661533214E1,1.023111153E1,-2.201396823E-1,-5.347958803E-1
3.663479256E1,1.004746246E1,-7.178468257E-2,-5.712863803E-1
3.665425297E1,9.943972588E0,2.392822644E-3,-5.413761139E-1
3.667371339E1,1.001097202E1,-9.571290575E-3,-5.066801906E-1
3.669317381E1,1.009053326E1,-1.465603858E-1,-4.522434771E-1
3.671263412E1,1.006600666E1,-3.337987661E-1,-4.031906128E-1
3.673209454E1,9.995418549E0,-3.308077157E-1,-4.839483798E-1
3.675155495E1,9.845867157E0,-2.446661144E-1,-6.095715761E-1
3.677101537E1,9.652647018E0,-2.703889608E-1,-5.952146053E-1
3.679047579E1,9.565308571E0,-4.007977843E-1,-5.593222976E-1
3.680993620E1,9.610174179E0,-5.892325640E-1,-4.809573591E-1
3.682939662E1,9.775279045E0,-6.466603279E-1,-4.193421602E-1
3.684885693E1,9.928419113E0,-5.611169338E-1,-4.151547253E-1
3.686831735E1,9.964909554E0,-4.253242314E-1,-4.217349887E-1
3.688777776E1,9.869196892E0,-3.379862010E-1,-4.301098585E-1
3.690723818E1,9.806385040E0,-2.901297510E-1,-4.923232496E-1
3.692669860E1,9.831509590E0,-2.883351147E-1,-5.407779217E-1
3.694615902E1,9.852447510E0,-3.014956415E-1,-4.827519655E-1
3.696561943E1,9.860821724E0,-2.291127741E-1,-3.738785386E-1
3.698507974E1,9.861420631E0,-1.680957973E-1,-2.943171859E-1
3.700454016E1,9.841081619E0,-1.716850251E-1,-2.913261652E-1
3.702400058E1,9.798608780E0,-1.878365725E-1,-3.176472187E-1
3.704346099E1,9.763314247E0,-1.884347796E-1,-3.409772217E-1
3.706292141E1,9.761520386E0,-2.231307179E-1,-3.397808075E-1
3.708238183E1,9.756135941E0,-2.877369225E-1,-3.128615618E-1
3.710184224E1,9.724431038E0,-3.678964674E-1,-3.523431420E-1
3.712130266E1,9.860223770E0,-2.548356056E-1,-5.670989752E-1
3.714076297E1,1.003250694E1,-2.512463741E-2,-6.167500615E-1
3.716022339E1,1.010249710E1,1.758724600E-1,-5.491527915E-1
3.717968381E1,1.016351414E1,2.859423161E-1,-5.054838061E-1
3.719914422E1,1.014556789E1,1.519442350E-1,-4.821537733E-1
3.721860464E1,9.939187050E0,-9.511470050E-2,-4.953143001E-1
3.723806506E1,9.751350403E0,-2.434697002E-1,-4.713860750E-1
3.725752547E1,9.677172661E0,-3.589234054E-1,-3.858426511E-1
3.727698579E1,9.681360245E0,-4.540380836E-1,-2.835494876E-1
3.729644620E1,9.731011391E0,-5.270192027E-1,-2.153540403E-1
3.731590662E1,9.787242889E0,-5.186443329E-1,-2.315055877E-1
3.733536704E1,9.915258408E0,-4.277170599E-1,-2.793620527E-1
3.735482745E1,1.000798035E1,-3.254238665E-1,-2.811566591E-1
3.737428787E1,9.990034103E0,-2.787638307E-1,-2.775674164E-1
3.739374829E1,9.928419113E0,-2.901297510E-1,-2.560320199E-1
3.741320860E1,9.875777245E0,-3.062812984E-1,-2.099701911E-1
3.743266902E1,9.856635094E0,-2.626122832E-1,-1.627119333E-1
3.745212943E1,9.986445427E0,-1.890329868E-1,-1.573280841E-1
3.747158985E1,1.008574772E1,-1.800599098E-1,-1.537388563E-1
3.749105027E1,1.002473068E1,-2.596212626E-1,-1.710868180E-1
3.751051068E1,9.996016502E0,-3.242274821E-1,-3.463610709E-1
3.752997110E1,1.002114105E1,-3.343969584E-1,-3.272185028E-1
3.754943152E1,1.001456070E1,-2.650051117E-1,-2.584248483E-1
3.756889183E1,1.001216793E1,-1.172483116E-1,-2.315055877E-1
3.758835224E1,9.911669731E0,-5.862415582E-2,-2.524427772E-1
3.760781266E1,9.745368004E0,-1.106680483E-1,-3.523431420E-1
3.762727308E1,9.609575272E0,-2.261217386E-1,-4.498506486E-1
3.764673349E1,9.600603104E0,-3.732803464E-1,-4.516452849E-1
3.766619391E1,9.734601021E0,-4.019941986E-1,-4.223332107E-1
3.768565433E1,9.836894035E0,-3.852444589E-1,-4.175475538E-1
3.770511464E1,9.799206734E0,-3.834498227E-1,-4.737788737E-1
3.772457506E1,9.671789169E0,-3.601198196E-1,-5.455635786E-1
3.774403547E1,9.565906525E0,-3.038884699E-1,-5.796613097E-1
3.776349589E1,9.555737495E0,-2.327020019E-1,-6.047859192E-1
3.778295631E1,9.617950439E0,-1.375873089E-1,-6.448656917E-1
3.780241672E1,9.688538551E0,-1.435693540E-2,-6.221339107E-1
3.782187714E1,9.714262009E0,4.127619043E-2,-6.382854581E-1
3.784133756E1,9.810572624E0,3.529413417E-2,-6.669993401E-1
3.786079787E1,9.925428391E0,-9.032905847E-2,-6.424728632E-1
3.788025829E1,9.950552940E0,-2.727817893E-1,-6.526423693E-1
3.789971870E1,1.000977516E1,-4.510470629E-1,-8.638089895E-1
3.791917912E1,1.004207802E1,-4.438686073E-1,-9.182456732E-1
3.793863954E1,9.918848038E0,-3.487538993E-1,-9.020941257E-1
3.795809995E1,9.873384476E0,-3.002992272E-1,-8.536394835E-1
3.797756037E1,9.757930756E0,-3.415754437E-1,-7.423732281E-1
3.799702079E1,9.623932838E0,-4.612165689E-1,-6.400800347E-1
3.801648110E1,9.430712700E0,-5.114658475E-1,-6.287141442E-1
3.803594152E1,9.360123634E0,-4.336991012E-1,-6.484549642E-1
3.805540193E1,9.436096191E0,-4.725824594E-1,-7.621139884E-1
3.807486235E1,9.480362892E0,-4.366901219E-1,-8.841479421E-1
3.809432276E1,9.561718941E0,-3.343969584E-1,-9.523434043E-1
3.811378318E1,9.646066666E0,-2.261217386E-1,-1.003789067E0
3.813324360E1,9.759725571E0,-7.058826834E-2,-1.010967612E0
3.815270391E1,9.848857880E0,3.409772366E-2,-1.066600680E0
3.817216433E1,9.824930191E0,8.374879509E-2,-1.165304661E0
3.819162474E1,9.693922997E0,2.147558331E-1,-1.245464206E0
3.821108516E1,9.683753014E0,2.757728100E-1,-1.311266780E0
3.823054558E1,9.872187614E0,2.380858511E-1,-1.241276741E0
3.825000599E1,9.915857315E0,2.829512656E-1,-1.073180914E0
3.826946641E1,1.015394306E1,2.524427772E-1,-1.033699393E0
3.828892672E1,1.032443142E1,2.392822653E-1,-1.195214868E0
3.830838714E1,1.040339470E1,2.123630047E-1,-1.220937729E0
3.832784756E1,1.040877819E1,1.268195957E-1,-1.137787223E0
3.834730797E1,1.029571724E1,-5.383851007E-2,-8.590233326E-1
3.836676839E1,1.006421185E1,-1.645065546E-1,-6.394818425E-1
3.838622881E1,9.805189133E0,-1.034895778E-1,-6.789634228E-1
3.840568922E1,9.609575272E0,-7.776673418E-3,-8.560323119E-1
3.842514954E1,9.607182503E0,1.148554832E-1,-9.661021233E-1
3.844460995E1,9.685547829E0,2.153540403E-1,-8.691928387E-1
3.846407037E1,9.710074425E0,2.901297510E-1,-6.556333899E-1
3.848353079E1,9.714262009E0,3.230310678E-1,-5.312066078E-1
3.850299120E1,9.772287369E0,3.032902777E-1,-5.784648657E-1
3.852245162E1,9.787242889E0,2.614158690E-1,-7.537391186E-1
3.854191193E1,9.967901230E0,3.601198196E-1,-8.919246197E-1
3.856137235E1,1.009113121E1,4.833501875E-1,-9.846464992E-1
3.858083277E1,1.011505985E1,6.113662124E-1,-9.960124493E-1
3.860029318E1,1.000618649E1,6.945167780E-1,-9.278169870E-1
3.861975360E1,9.768099785E0,6.161518097E-1,-8.033902049E-1
3.863921402E1,9.556335449E0,4.259224236E-1,-7.208378315E-1
3.865867443E1,9.516854286E0,2.853440940E-1,-6.556333899E-1
3.867813474E1,9.578469276E0,2.279163599E-1,-8.003991842E-1
3.869759516E1,9.838688850E0,3.541377485E-1,-8.620143533E-1
3.871705558E1,1.007378292E1,5.132604837E-1,-8.255237937E-1
3.873651599E1,1.014018440E1,5.186443329E-1,-7.782655358E-1
3.875597641E1,1.009771156E1,4.271188378E-1,-7.621139884E-1
3.877543683E1,1.003430176E1,4.396811724E-1,-7.770691514E-1
3.879489724E1,9.960722923E0,3.786641955E-1,-8.536394835E-1
3.881435756E1,9.717252731E0,3.302095234E-1,-8.518448472E-1
3.883381797E1,9.413962364E0,3.242274821E-1,-7.154539824E-1
3.885327839E1,9.352347374E0,3.337987661E-1,-6.125625968E-1
3.887273881E1,9.611968994E0,3.260220885E-1,-5.982056856E-1
3.889219922E1,9.866206169E0,1.339980662E-1,-6.496513486E-1
3.891165964E1,1.012941647E1,7.477571070E-2,-7.764709592E-1
3.893112006E1,1.026520920E1,3.050848842E-2,-7.992027402E-1
3.895058037E1,1.026042366E1,4.606183618E-2,-7.986045480E-1
3.897004079E1,1.017368412E1,1.166501045E-1,-7.124629617E-1
3.898950120E1,9.875777245E0,7.118647546E-2,-6.604190469E-1
3.900896162E1,9.590433121E0,1.040877849E-1,-7.393822074E-1
3.902842204E1,9.585049629E0,1.591227055E-1,-7.028916478E-1
3.904788245E1,9.684351921E0,1.956132501E-1,-6.071787477E-1
3.906734276E1,9.813564301E0,2.255235314E-1,-5.892325640E-1
3.908680318E1,9.857233047E0,2.177468538E-1,-5.431707501E-1
3.910626360E1,9.814162254E0,1.651047617E-1,-5.557330847E-1
3.912572402E1,9.811769485E0,1.178465188E-1,-6.227321029E-1
3.914518443E1,9.856635094E0,-4.247260094E-2,-6.173482537E-1
3.916464485E1,9.910472870E0,-2.350948304E-1,-5.521438122E-1
3.918410526E1,9.886545181E0,-2.566302419E-1,-4.785645306E-1
3.920356558E1,9.871589661E0,-3.164508045E-1,-4.869394004E-1
3.922302599E1,9.839884758E0,-3.816552162E-1,-5.084748268E-1
3.924248641E1,9.887143135E0,-3.810569942E-1,-4.809573591E-1
3.926194683E1,9.765109062E0,-2.673979402E-1,-4.181457460E-1
3.928140724E1,9.593423843E0,-2.267199457E-1,-2.871387303E-1
3.930086766E1,9.655039787E0,-3.116651475E-1,-2.327020019E-1
3.932032808E1,9.806983948E0,-3.433700502E-1,-2.787638307E-1
3.933978839E1,9.824930191E0,-3.032902777E-1,-3.445664644E-1
3.935924881E1,9.792626381E0,-2.847459018E-1,-3.493520916E-1
3.937870922E1,9.602995872E0,-2.691925466E-1,-2.955136001E-1
3.939816964E1,9.520442963E0,-1.734796464E-1,-2.614158690E-1
3.941763006E1,9.524032593E0,-2.207378894E-1,-2.069791555E-1
3.943709047E1,9.602396965E0,-2.560320199E-1,-2.380858511E-1
3.945655089E1,9.729815483E0,-1.776670814E-1,-3.649054468E-1
3.947601120E1,9.702297211E0,-1.004985496E-1,-4.899304509E-1
3.949547162E1,9.713663101E0,-2.099701911E-1,-5.383850932E-1
3.951493204E1,9.849455833E0,-2.458625287E-1,-5.252245665E-1
3.953439245E1,9.869794846E0,-1.836491376E-1,-4.941178858E-1
3.955385287E1,9.795618057E0,-2.225325108E-1,-4.498506486E-1
3.957331329E1,9.674181938E0,-2.117647976E-1,-4.342973232E-1
3.959277370E1,9.702896118E0,-4.546362907E-2,-4.354937077E-1
3.961223402E1,9.858428955E0,4.666004330E-2,-4.426721931E-1
3.963169443E1,9.891928673E0,-1.357926875E-1,-6.011967063E-1
3.965115485E1,9.848857880E0,-3.672982752E-1,-7.226324677E-1
3.967061526E1,9.887143135E0,-3.708875179E-1,-7.250252366E-1
3.969007568E1,9.911071777E0,-2.177468538E-1,-7.172485590E-1
3.970953610E1,9.870393753E0,1.076770201E-2,-6.520441771E-1
3.972899652E1,9.850652695E0,1.603191197E-1,-5.946164131E-1
3.974845683E1,9.969695091E0,1.992024779E-1,-5.940182209E-1
3.976791724E1,1.021316528E1,1.070788130E-1,-7.154539824E-1
3.978737766E1,1.020598698E1,-4.785645287E-3,-8.973084688E-1
3.980683808E1,1.024845982E1,-1.076770201E-2,-9.236295223E-1
3.982629849E1,1.014078236E1,-1.178465188E-1,-9.140582681E-1
3.984575891E1,1.009292603E1,-1.441675574E-1,-9.200403094E-1
3.986521933E1,9.865009308E0,-1.615155339E-1,-8.500502706E-1
