"Time (s)","Gyroscope x (rad/s)","Gyroscope y (rad/s)","Gyroscope z (rad/s)"
6.758797300E-2,-1.088102907E-1,-5.543597788E-2,1.527161989E-2
8.704839000E-2,-1.002581790E-1,-4.169152305E-2,4.276053514E-3
1.065087020E-1,-8.758273721E-2,-3.207040206E-2,-9.162971750E-3
1.259691190E-1,-6.971494108E-2,-3.329212964E-2,-2.367101051E-2
1.454295360E-1,-5.199986324E-2,-4.413498193E-2,-3.878991306E-2
1.648899520E-1,-4.482220486E-2,-5.360338464E-2,-5.543597788E-2
1.843503690E-1,-5.276344717E-2,-5.604684353E-2,-7.177661359E-2
2.038107860E-1,-5.612320080E-2,-7.009673119E-2,-7.788526267E-2
2.232712020E-1,-4.268417507E-2,-1.033888608E-1,-7.315105945E-2
2.427316190E-1,-1.840230078E-2,-1.104138121E-1,-6.444623321E-2
2.621920360E-1,2.061668551E-3,-1.079703495E-1,-6.520981342E-2
2.816524520E-1,1.901316643E-2,-1.059850380E-1,-6.963858753E-2
3.011128690E-1,3.016144782E-2,-1.007926911E-1,-6.169734150E-2
3.205731820E-1,2.222020552E-2,-8.216131479E-2,-5.283980444E-2
3.400335980E-1,1.748600416E-2,-6.750056148E-2,-4.673115537E-2
3.594940150E-1,1.580612548E-2,-6.414080411E-2,-3.298669681E-2
3.789544320E-1,1.595884189E-2,-6.429351866E-2,-4.428769462E-3
3.984148480E-1,1.443168055E-2,-6.475166976E-2,2.000582218E-2
4.178752650E-1,8.781181648E-3,-4.627300799E-2,2.672533318E-2
4.373356820E-1,8.399390499E-4,-1.145371422E-2,2.290742844E-2
4.567960980E-1,-2.214384731E-3,7.941242307E-3,2.122755162E-2
4.762565150E-1,-6.032289471E-3,5.192350596E-3,2.092211880E-2
4.957169320E-1,2.977965865E-3,7.941242307E-3,2.565632015E-2
5.151773480E-1,1.718057133E-2,2.336557768E-2,2.825249545E-2
5.346377650E-1,2.787070535E-2,2.703076601E-2,2.901607752E-2
5.540981820E-1,4.283689335E-2,2.199113183E-2,2.947422490E-2
5.735584940E-1,5.978839099E-2,6.261364091E-3,3.191768378E-2
5.930189110E-1,7.108938694E-2,-2.122755162E-2,4.077522457E-2
6.124793270E-1,7.475458086E-2,-4.321868345E-2,4.963276163E-2
6.319397440E-1,7.826705277E-2,-4.077522457E-2,5.177079141E-2
6.514001610E-1,7.887791097E-2,-1.542433538E-2,5.009091273E-2
6.708605770E-1,6.940951198E-2,3.665188793E-3,4.108065739E-2
6.903209940E-1,6.513345987E-2,-1.832594397E-3,3.054323979E-2
7.097814110E-1,8.284853399E-2,-1.267544460E-2,2.657261863E-2
7.292418270E-1,9.873101860E-2,-1.069013402E-2,1.878409274E-2
7.487022440E-1,1.030070707E-1,3.817904973E-3,6.719512399E-3
7.681626610E-1,9.674570709E-2,1.450803876E-2,3.207040019E-3
7.876229730E-1,8.071050793E-2,2.092211880E-2,2.748891478E-3
8.070833900E-1,6.284271181E-2,2.611446939E-2,2.290742937E-3
8.265438070E-1,5.184714869E-2,2.351829410E-2,-1.221729559E-3
8.460042230E-1,4.833467677E-2,1.374445762E-2,-4.581485875E-3
8.654646400E-1,4.665479809E-2,3.054323897E-4,-8.552107029E-3
8.849250570E-1,4.650207981E-2,-1.527161989E-2,-1.084284950E-2
9.043854730E-1,4.833467677E-2,-2.199113183E-2,-3.054323839E-3
9.238458900E-1,5.031998456E-2,-1.588248461E-2,6.872228812E-3
9.433063070E-1,4.848739132E-2,6.108647794E-4,1.175914705E-2
9.627667230E-1,4.634936526E-2,1.756236330E-2,1.175914705E-2
9.822271400E-1,4.558578506E-2,3.298669681E-2,8.399390616E-3
1.001687557E0,4.207331315E-2,3.497200832E-2,1.221729559E-3
1.021147869E0,3.764454275E-2,3.405570984E-2,-6.566796452E-3
1.040608286E0,3.901898861E-2,2.748891525E-2,-1.130099874E-2
1.060068702E0,3.794997558E-2,8.399390616E-3,-1.084284950E-2
1.079529119E0,2.878700197E-2,7.483093534E-3,-1.542433538E-2
1.098989536E0,1.870773360E-2,6.719512399E-3,-2.825249545E-2
1.118449952E0,2.145662531E-2,8.552107029E-3,-3.711003438E-2
1.137910369E0,3.168861195E-2,5.803215317E-3,-3.726275265E-2
1.157370786E0,3.336848691E-2,6.108647678E-3,-3.833176568E-2
1.176831202E0,2.802342176E-2,-1.832594397E-3,-4.092793912E-2
1.196291619E0,1.824958436E-2,8.552107029E-3,-4.031707719E-2
1.215752036E0,1.756236190E-3,2.474002354E-2,-3.894263133E-2
1.235212452E0,-9.697478265E-3,3.726275265E-2,-4.398226365E-2
1.254672869E0,-6.795870606E-3,4.199695215E-2,-5.528326333E-2
1.274133182E0,9.544761851E-3,3.985892609E-2,-6.047561392E-2
1.293593598E0,2.206749097E-2,2.458730713E-2,-5.604684353E-2
1.313054015E0,2.038761228E-2,5.345067009E-3,-4.856374860E-2
1.332514432E0,7.406735327E-3,5.345067009E-3,-4.428769648E-2
1.351974848E0,-3.130682046E-3,2.199113183E-2,-4.474584386E-2
1.371435265E0,-3.588830587E-3,3.283398226E-2,-4.780016840E-2
1.390895682E0,-3.894262947E-3,2.825249545E-2,-4.428769648E-2
1.410356098E0,-7.559451740E-3,2.183841541E-2,-3.909534588E-2
1.429816515E0,-1.336266659E-2,2.275471389E-2,-3.497200832E-2
1.449276932E0,-1.443168055E-2,3.252854943E-2,-3.405570984E-2
1.468737348E0,-9.850194678E-3,3.344484791E-2,-3.222311661E-2
1.488197661E0,-1.000291109E-2,1.970038936E-2,-3.207040206E-2
1.507658077E0,-7.254019380E-3,2.840521187E-2,-3.329212964E-2
1.527118494E0,-5.574141163E-3,3.191768378E-2,-3.359756246E-2
1.546578911E0,9.086613543E-3,2.351829410E-2,-2.626718581E-2
1.566039327E0,2.756527252E-2,1.084284950E-2,-1.481347065E-2
1.585499744E0,4.466948658E-2,3.512472380E-3,-1.832594397E-3
1.604960161E0,5.199986324E-2,-6.108647678E-3,9.773836471E-3
1.624420577E0,5.703949928E-2,4.428769462E-3,2.367101051E-2
1.643880994E0,6.314814836E-2,8.857538924E-3,3.527744114E-2
1.663341411E0,8.361211419E-2,4.276053514E-3,4.489856213E-2
1.682801827E0,1.011744812E-1,1.527161920E-3,4.871646687E-2
1.702262244E0,1.056032479E-1,-2.138026757E-3,4.871646687E-2
1.721722557E0,1.071304083E-1,-4.123337101E-3,5.528326333E-2
1.741182973E0,1.162933856E-1,-7.024944760E-3,6.963858753E-2
1.760643390E0,1.289688200E-1,-1.053741761E-2,8.888082206E-2
1.780103807E0,1.379790753E-1,-1.145371422E-2,1.021671370E-1
1.799564223E0,1.430187225E-1,-7.941242307E-3,1.081230640E-1
1.819024640E0,1.414915472E-1,-3.970621154E-3,1.065959036E-1
1.838485057E0,1.317177117E-1,-4.886918236E-3,1.036942974E-1
1.857945473E0,1.111010313E-1,-1.099556591E-2,9.728021920E-2
1.877405890E0,8.223766834E-2,-1.221729536E-2,8.781181276E-2
1.896866307E0,5.276344717E-2,-1.130099874E-2,8.017600328E-2
1.916326723E0,2.328922041E-2,-2.214384824E-2,7.360920310E-2
1.935787036E0,2.977965865E-3,-2.840521187E-2,6.658425927E-2
1.955247452E0,-1.756236190E-3,-3.772090003E-2,6.215549260E-2
1.974707869E0,8.323032409E-3,-4.428769648E-2,5.772672221E-2
1.994168286E0,2.222020552E-2,-4.123337194E-2,5.818486959E-2
2.013628702E0,2.237292193E-2,-1.954767294E-2,5.726857483E-2
2.033089119E0,9.239329956E-3,-5.803215317E-3,5.085449293E-2
2.052549536E0,-8.933897130E-3,-5.039634649E-3,4.612028971E-2
2.072009952E0,-2.038761228E-2,-4.123337101E-3,4.657844082E-2
2.091470369E0,-2.130390890E-2,-5.955931731E-3,4.550942779E-2
2.110930682E0,-1.351538301E-2,-1.206457894E-2,3.894263133E-2
2.130391098E0,-3.588830587E-3,-2.244928107E-2,3.237583488E-2
2.149851515E0,6.872228696E-4,-2.703076601E-2,2.886336111E-2
2.169311932E0,-2.214384731E-3,-1.221729536E-2,2.519817278E-2
2.188772348E0,-9.392046370E-3,1.038470119E-2,1.740964688E-2
2.208232765E0,-1.229365356E-2,2.550360374E-2,9.010255337E-3
2.227693182E0,-1.046105940E-2,3.252854943E-2,3.054323839E-3
2.247153598E0,-5.879573524E-3,2.993237413E-2,1.069013379E-3
2.266614015E0,-3.817904799E-4,1.679878123E-2,1.221729559E-3
2.286074432E0,1.336266659E-2,1.069013379E-3,2.443459118E-3
2.305534744E0,3.504836559E-2,-1.053741761E-2,3.207040019E-3
2.324995161E0,6.116283685E-2,-1.572976820E-2,2.748891478E-3
2.344455577E0,8.269581944E-2,-1.374445762E-2,2.901607659E-3
2.363915994E0,8.636100590E-2,-4.581485991E-4,2.596175298E-3
2.383376411E0,7.063124329E-2,1.130099874E-2,-4.581485875E-3
2.402836827E0,5.719221383E-2,2.718348242E-2,-1.221729536E-2
2.422297244E0,6.116283685E-2,3.878991306E-2,-1.786779426E-2
2.441757661E0,6.971494108E-2,4.337139800E-2,-2.306014486E-2
2.461218077E0,7.063124329E-2,4.199695215E-2,-2.687804960E-2
2.480678494E0,6.101011857E-2,5.024362728E-2,-3.405570984E-2
2.500138807E0,5.810851231E-2,6.185005978E-2,-3.955349326E-2
2.519599223E0,5.963567272E-2,5.864302069E-2,-3.787361458E-2
2.539059640E0,5.306887627E-2,4.627300799E-2,-3.802633286E-2
2.558520057E0,4.146244749E-2,3.741546720E-2,-4.169152305E-2
2.577980473E0,3.642281145E-2,3.069595434E-2,-4.795288667E-2
2.597440890E0,3.550651670E-2,2.672533318E-2,-5.772672221E-2
2.616901307E0,3.092502989E-2,2.794706449E-2,-6.551524997E-2
2.636361723E0,3.046688065E-2,2.901607752E-2,-6.826414168E-2
2.655822140E0,3.672824427E-2,3.313941509E-2,-6.551524997E-2
2.675282557E0,4.436405376E-2,3.756818548E-2,-6.139190868E-2
2.694742869E0,4.696023092E-2,3.711003438E-2,-5.864302069E-2
2.714203286E0,4.543306679E-2,2.306014486E-2,-5.879573524E-2
2.733663702E0,3.443750367E-2,2.596175298E-3,-6.536252797E-2
2.753124119E0,1.595884189E-2,-1.328630932E-2,-7.467821985E-2
2.772584536E0,2.977965865E-3,-5.650499370E-3,-7.589995116E-2
2.792044952E0,-4.810560029E-3,1.725693047E-2,-7.315105945E-2
2.811505369E0,-3.894262947E-3,2.061668597E-2,-6.658425927E-2
2.830965786E0,-1.145371469E-3,1.145371422E-2,-5.467239767E-2
2.850426202E0,-7.712167688E-3,5.039634649E-3,-4.520399496E-2
2.869886515E0,-2.939786762E-2,1.649334840E-2,-4.474584386E-2
2.889346932E0,-5.047270283E-2,2.565632015E-2,-5.177079141E-2
2.908807348E0,-5.856665969E-2,2.855792828E-2,-5.833758786E-2
2.928267765E0,-4.894553870E-2,2.076940238E-2,-5.665770918E-2
2.947728182E0,-4.008800164E-2,5.345067009E-3,-4.917461425E-2
2.967188598E0,-4.237874225E-2,-3.817904973E-3,-4.749473557E-2
2.986649015E0,-4.512763396E-2,1.069013379E-3,-4.871646687E-2
3.006109432E0,-4.283689335E-2,1.603520103E-2,-4.703658819E-2
3.025569848E0,-3.978256881E-2,2.916879393E-2,-3.955349326E-2
3.045030265E0,-3.596466407E-2,3.497200832E-2,-3.252854943E-2
3.064490577E0,-3.092502989E-2,3.115410358E-2,-2.871064469E-2
3.083950994E0,-2.481638081E-2,2.244928107E-2,-2.718348242E-2
3.103411411E0,-1.855501719E-2,1.099556591E-2,-2.306014486E-2
3.122871827E0,-1.443168055E-2,2.443459118E-3,-1.481347065E-2
3.142332244E0,-1.046105940E-2,9.621120058E-3,-7.635809947E-3
3.161792661E0,-1.229365356E-2,2.244928107E-2,-6.872228812E-3
3.181253077E0,-1.336266659E-2,2.519817278E-2,-6.566796452E-3
3.200713494E0,-1.702785492E-2,3.115410358E-2,-7.941242307E-3
3.220173807E0,-2.069304511E-2,3.604102135E-2,-7.024944760E-3
3.239634223E0,-2.527453005E-2,3.115410358E-2,-3.207040019E-3
3.259094640E0,-3.184132650E-2,1.970038936E-2,2.138026757E-3
3.278555057E0,-3.779725730E-2,1.328630932E-2,3.207040019E-3
3.298015473E0,-4.253146052E-2,7.177661173E-3,3.054323897E-4
3.317475890E0,-4.497491941E-2,1.221729559E-3,-1.374445739E-3
3.336936307E0,-4.787652567E-2,1.099556591E-2,-1.832594397E-3
3.356396723E0,-5.062541738E-2,2.565632015E-2,-7.635809598E-4
3.375857140E0,-5.062541738E-2,3.023780696E-2,1.679878100E-3
3.395317452E0,-4.650207981E-2,2.901607752E-2,3.970621154E-3
3.414777869E0,-3.642281145E-2,2.855792828E-2,8.093958721E-3
3.434238286E0,-2.771798894E-2,3.375028074E-2,1.572976820E-2
3.453698702E0,-2.557996288E-2,4.688387364E-2,2.183841541E-2
3.473159119E0,-2.787070535E-2,5.589412898E-2,2.061668597E-2
3.492619536E0,-2.771798894E-2,4.856374860E-2,1.679878123E-2
3.512079952E0,-2.328922041E-2,3.329212964E-2,1.298087649E-2
3.531540369E0,-1.687514037E-2,1.374445762E-2,1.359174121E-2
3.551000682E0,-1.580612548E-2,1.985310577E-3,1.695149764E-2
3.570461098E0,-2.390008420E-2,9.926552884E-3,2.000582218E-2
3.589921515E0,-3.184132650E-2,2.275471389E-2,1.725693047E-2
3.609381932E0,-2.374736778E-2,2.214384824E-2,9.926552884E-3
3.628842348E0,-7.864884101E-3,1.389717404E-2,5.345067009E-3
3.648302765E0,3.130682046E-3,1.374445739E-3,8.704823442E-3
3.667763182E0,-1.908952487E-3,-1.527161920E-3,1.420260593E-2
3.687223598E0,-1.336266659E-2,-2.138026757E-3,1.740964688E-2
3.706684015E0,-2.344193682E-2,9.162971983E-4,1.069013402E-2
3.726144327E0,-3.245219216E-2,-4.123337101E-3,3.512472380E-3
3.745604744E0,-3.581194952E-2,-1.435532235E-2,-7.635809598E-4
3.765065161E0,-2.955058403E-2,-2.977965772E-2,-1.069013379E-3
3.784525577E0,-2.252563834E-2,-4.260781780E-2,2.748891478E-3
3.803985994E0,-2.664897591E-2,-5.131264031E-2,4.123337101E-3
3.823446411E0,-3.504836559E-2,-5.711585656E-2,5.039634649E-3
3.842906827E0,-4.451677203E-2,-5.375609919E-2,5.497782957E-3
3.862367244E0,-4.940368980E-2,-4.718930274E-2,7.788525894E-3
3.881827661E0,-4.741837829E-2,-3.802633286E-2,1.282816008E-2
3.901287973E0,-4.390590638E-2,-2.855792828E-2,1.847865991E-2
3.920748390E0,-4.619665071E-2,-2.214384824E-2,2.107483521E-2
3.940208807E0,-5.398517475E-2,-1.359174121E-2,1.786779426E-2
3.959669223E0,-6.146826968E-2,-7.024944760E-3,1.618791744E-2
3.979129640E0,-6.498073786E-2,-8.704823442E-3,2.138026804E-2
3.998590057E0,-7.460185885E-2,-6.566796452E-3,3.237583488E-2
4.018050473E0,-8.254310489E-2,-6.566796452E-3,4.276053607E-2
4.037510890E0,-8.223766834E-2,-1.588248461E-2,4.413498193E-2
4.056971202E0,-7.246383280E-2,-2.168569900E-2,3.985892609E-2
4.076431619E0,-6.146826968E-2,-2.779434808E-2,3.695731983E-2
4.095892036E0,-5.169443041E-2,-3.878991306E-2,4.031707719E-2
4.115352452E0,-4.512763396E-2,-4.948004708E-2,4.703658819E-2
4.134812869E0,-4.253146052E-2,-4.001164436E-2,4.810560122E-2
4.154273286E0,-4.543306679E-2,-3.359756246E-2,4.718930274E-2
4.173733702E0,-4.650207981E-2,-3.313941509E-2,4.917461425E-2
4.193194119E0,-4.451677203E-2,-3.527744114E-2,5.467239767E-2
4.212654432E0,-4.589121789E-2,-3.634645417E-2,6.001746282E-2
4.232114848E0,-5.108356848E-2,-3.191768378E-2,5.833758786E-2
4.251575265E0,-5.597048625E-2,-2.367101051E-2,4.993819445E-2
4.271035682E0,-5.276344717E-2,-1.023198478E-2,4.199695215E-2
4.290496098E0,-4.039343446E-2,-9.315688163E-3,3.787361458E-2
4.309956515E0,-2.054032870E-2,-1.954767294E-2,4.276053607E-2
4.329416932E0,-9.392046370E-3,-3.191768378E-2,5.070177838E-2
4.348877348E0,-2.519817324E-3,-4.337139800E-2,5.451968312E-2
4.368337661E0,5.421424750E-3,-4.780016840E-2,5.497783050E-2
4.387798077E0,8.170315996E-3,-4.184423760E-2,5.100720748E-2
4.407258494E0,1.603520010E-3,-2.809977904E-2,4.550942779E-2
4.426718911E0,-9.239329956E-3,-1.802051067E-2,4.184423760E-2
4.446179327E0,-1.168278884E-2,-2.015853859E-2,4.001164436E-2
4.465639744E0,-1.091920771E-2,-3.359756246E-2,3.955349326E-2
4.485100161E0,-4.963276442E-3,-4.062250629E-2,3.955349326E-2
4.504560577E0,-5.115992390E-3,-3.940077871E-2,3.772090003E-2
4.524020890E0,-9.239329956E-3,-2.687804960E-2,3.649916872E-2
4.543481307E0,-7.712167688E-3,-2.336557768E-2,3.405570984E-2
4.562941723E0,-6.185005885E-3,-2.153298259E-2,3.237583488E-2
4.582402140E0,-8.323032409E-3,-3.161225095E-2,3.145953640E-2
4.601862557E0,-7.101302966E-3,-4.031707719E-2,3.619373962E-2
4.621322973E0,5.345066893E-4,-3.940077871E-2,4.046979174E-2
4.640783390E0,8.933897130E-3,-3.466657549E-2,4.031707719E-2
4.660243702E0,1.687514037E-2,-3.680460155E-2,3.817904741E-2
4.679704119E0,2.649625950E-2,-4.550942779E-2,3.863719851E-2
4.699164536E0,3.901898861E-2,-4.902189970E-2,4.153880477E-2
4.718624952E0,5.047270283E-2,-4.825831577E-2,4.535670951E-2
4.738085369E0,5.749764666E-2,-5.283980444E-2,4.642572254E-2
4.757545786E0,6.513345987E-2,-5.436696485E-2,4.535670951E-2
4.777006202E0,7.658717036E-2,-4.764745384E-2,4.260781780E-2
4.796466619E0,9.384410083E-2,-4.566214234E-2,3.848448023E-2
4.815926932E0,1.078939885E-1,-5.650499091E-2,3.573558852E-2
4.835387348E0,1.109483168E-1,-7.391463965E-2,3.588830680E-2
4.854847765E0,1.042288020E-1,-7.589995116E-2,3.237583488E-2
4.874308182E0,9.445496649E-2,-6.307178736E-2,1.466075517E-2
4.893768598E0,9.766200930E-2,-4.260781780E-2,-6.108647678E-3
4.913229015E0,1.094211563E-1,-2.229656465E-2,-2.672533318E-2
4.932689432E0,1.120173261E-1,-6.719512399E-3,-4.489856213E-2
4.952149744E0,1.065195426E-1,6.566796452E-3,-5.818486959E-2
4.971610161E0,9.353867173E-2,2.122755162E-2,-7.131846249E-2
4.991070577E0,8.055779338E-2,4.153880477E-2,-8.735366166E-2
5.010530994E0,6.482802331E-2,4.566214234E-2,-1.017089859E-1
5.029991411E0,4.558578506E-2,3.940077871E-2,-1.032361463E-1
5.049451827E0,3.077231348E-2,2.718348242E-2,-1.017089859E-1
5.068912140E0,3.168861195E-2,1.618791744E-2,-9.636391699E-2
5.088372557E0,4.573849961E-2,2.061668597E-2,-9.117157012E-2
5.107832973E0,6.360629201E-2,2.779434808E-2,-8.292489499E-2
5.127293390E0,8.330668509E-2,3.481929377E-2,-6.826414168E-2
5.146753807E0,1.025489271E-1,4.016435891E-2,-5.024362728E-2
5.166214223E0,1.178205460E-1,3.985892609E-2,-3.161225095E-2
5.185674640E0,1.117118970E-1,4.734202102E-2,-2.061668597E-2
5.205135057E0,7.994692773E-2,6.352993846E-2,-1.924224012E-2
5.224595369E0,4.329504073E-2,6.627883017E-2,-1.374445762E-2
5.244055786E0,1.809686981E-2,5.451968312E-2,4.581485991E-4
5.263516202E0,9.544761851E-3,4.062250629E-2,1.542433538E-2
5.282976619E0,2.557996288E-2,3.481929377E-2,2.107483521E-2
5.302437036E0,4.772381112E-2,4.062250629E-2,2.015853859E-2
5.321897452E0,5.765036494E-2,5.849030241E-2,1.053741761E-2
5.341357869E0,4.604393244E-2,8.048143238E-2,-3.054323897E-4
5.360818182E0,3.306305781E-2,9.529490769E-2,-6.261364091E-3
5.380278598E0,3.840812296E-2,9.224057943E-2,-1.069013379E-3
5.399739015E0,4.696023092E-2,8.445205539E-2,1.130099874E-2
5.419199432E0,5.108356848E-2,8.185587823E-2,1.572976820E-2
5.438659848E0,5.627591908E-2,9.224057943E-2,1.435532235E-2
5.458120265E0,6.284271181E-2,1.151480079E-1,1.527161989E-2
5.477580682E0,6.971494108E-2,1.481347084E-1,1.985310577E-2
5.497040994E0,6.559160352E-2,1.795942485E-1,2.535088919E-2
5.516501411E0,6.330086291E-2,1.971566081E-1,2.275471389E-2
5.535961827E0,6.635518372E-2,1.881463528E-1,1.084284950E-2
5.555422244E0,4.665479809E-2,1.673769504E-1,-6.261364091E-3
5.574882661E0,1.427896414E-2,1.540906429E-1,-1.175914705E-2
5.594343077E0,-1.015562657E-2,1.582139730E-1,-1.985310577E-3
5.613803390E0,-3.184132650E-2,1.765399277E-1,3.359756200E-3
5.633263807E0,-4.573849961E-2,1.959348768E-1,9.621120058E-3
5.652724223E0,-4.741837829E-2,2.312123179E-1,2.443459118E-3
5.672184640E0,-7.215840369E-2,2.402225733E-1,-2.596175298E-3
5.691645057E0,-9.857830405E-2,2.362519503E-1,-2.901607659E-3
5.711105473E0,-9.430225194E-2,2.443459183E-1,-1.832594397E-3
5.730565890E0,-6.910407543E-2,2.463312149E-1,-3.817904973E-3
5.750026307E0,-6.543888897E-2,2.394589931E-1,-1.832594350E-2
5.769486619E0,-5.887209252E-2,2.218966335E-1,-3.604102135E-2
5.788947036E0,-3.596466407E-2,1.989891976E-1,-4.413498193E-2
5.808407452E0,-1.603520010E-3,1.800523996E-1,-3.588830680E-2
5.827867869E0,2.496909723E-2,1.621845961E-1,-1.908952370E-2
5.847328286E0,1.397353224E-2,1.317940801E-1,-3.054323839E-3
5.866788702E0,-1.611155830E-2,8.429934084E-2,9.773836471E-3
5.886249119E0,-3.642281145E-2,3.130681813E-2,-6.108647794E-4
5.905709432E0,-1.550069358E-2,-3.008509055E-2,-1.985310577E-2
5.925169848E0,1.962403022E-2,-8.765909821E-2,-4.001164436E-2
5.944630265E0,2.527453005E-2,-1.325576603E-1,-5.222893879E-2
5.964090682E0,1.244636998E-2,-1.346956789E-1,-5.070177838E-2
5.983551098E0,2.061668551E-3,-9.773836285E-2,-4.520399496E-2
6.003011515E0,4.963276442E-3,-4.627300799E-2,-4.245510325E-2
6.022471932E0,2.359465137E-2,-3.054323897E-4,-4.428769648E-2
6.041932244E0,3.275762498E-2,3.420842811E-2,-5.329795182E-2
6.061392661E0,2.267835476E-2,6.551524997E-2,-6.963858753E-2
6.080853077E0,6.185005885E-3,7.009673119E-2,-8.368847519E-2
6.100313494E0,-6.032289471E-3,3.665188700E-2,-9.330959618E-2
6.119773911E0,-1.687514037E-2,-1.038470119E-2,-1.027780026E-1
6.139234327E0,-1.412624773E-2,-4.428769648E-2,-1.085812151E-1
6.158694744E0,-4.352411721E-3,-5.131264031E-2,-1.075121984E-1
6.178155057E0,1.687514037E-2,-3.084867075E-2,-1.018617004E-1
6.197615473E0,5.749764666E-2,-1.145371422E-2,-9.712749720E-2
6.217075890E0,1.106428802E-1,-6.566796452E-3,-8.888082206E-2
6.236536307E0,1.523344070E-1,-1.557705179E-2,-6.597339362E-2
6.255996723E0,1.611919403E-1,-3.634645417E-2,-3.665188700E-2
6.275457140E0,1.501963735E-1,-4.321868345E-2,-1.053741761E-2
6.294917452E0,1.219438836E-1,-1.038470119E-2,1.053741761E-2
6.314377869E0,8.284853399E-2,1.908952370E-2,2.336557768E-2
6.333838286E0,3.581194952E-2,1.863137633E-2,2.229656465E-2
6.353298702E0,8.475748822E-3,-5.497782957E-3,2.183841541E-2
6.372759119E0,2.313650399E-2,-2.061668597E-2,2.871064469E-2
6.392219536E0,6.055197120E-2,-3.115410358E-2,4.031707719E-2
6.411679848E0,7.673988491E-2,-5.451968312E-2,5.421425030E-2
6.431140265E0,4.894553870E-2,-8.765909821E-2,6.673697382E-2
6.450600682E0,-1.450803829E-3,-1.209512278E-1,7.070759684E-2
6.470061098E0,-5.001455545E-2,-1.684459597E-1,6.398808211E-2
6.489521515E0,-7.460185885E-2,-1.942549944E-1,6.169734150E-2
6.508981932E0,-7.628174126E-2,-2.002109289E-1,5.574141070E-2
6.528442348E0,-6.788235158E-2,-1.950185746E-1,4.795288667E-2
6.547902661E0,-6.604975462E-2,-2.032652497E-1,4.596757516E-2
6.567363077E0,-8.193223923E-2,-2.417497337E-1,5.910116807E-2
6.586823494E0,-1.373682171E-1,-3.168860972E-1,7.116574794E-2
6.606283911E0,-2.086866796E-1,-3.875937164E-1,8.659008145E-2
6.625744327E0,-2.552651167E-1,-4.358520210E-1,9.376774728E-2
6.645204744E0,-2.361755967E-1,-4.805978537E-1,7.620538026E-2
6.664665057E0,-1.949422210E-1,-5.644390583E-1,2.733619884E-2
6.684125473E0,-1.404225379E-1,-6.491965652E-1,-1.649334840E-2
6.703585890E0,-1.320231557E-1,-7.098248601E-1,-2.412915789E-2
6.723046307E0,-1.188895553E-1,-6.717985272E-1,-1.695149764E-2
6.742506723E0,-8.513928205E-2,-5.141954422E-1,-1.130099874E-2
6.761967140E0,-4.130972922E-2,-3.639226854E-1,-1.313359290E-2
6.781427452E0,-5.322159454E-2,-2.490801066E-1,-3.222311661E-2
6.800887869E0,-1.072831303E-1,-1.496618688E-1,-6.261363626E-2
6.820348286E0,-1.593593508E-1,-1.127045527E-1,-1.029307172E-1
6.839808702E0,-1.911243200E-1,-1.371391416E-1,-1.508836001E-1
6.859269119E0,-1.941786408E-1,-1.551596522E-1,-1.974620372E-1
6.878729432E0,-1.715766490E-1,-1.305723488E-1,-2.280052751E-1
6.898189848E0,-1.596647799E-1,-1.058323234E-1,-2.405280024E-1
6.917650265E0,-1.598175019E-1,-9.040798992E-2,-2.486219704E-1
6.937110682E0,-1.451567411E-1,-6.322450191E-2,-2.641990185E-1
6.956571098E0,-1.008690447E-1,-1.435532235E-2,-2.617555559E-1
6.976031411E0,-3.520108387E-2,4.108065739E-2,-2.162461281E-1
6.995491827E0,3.031416424E-2,8.399390429E-2,-1.339320987E-1
7.014952244E0,1.002581790E-1,1.072067693E-1,-2.474002354E-2
7.034412661E0,1.737146676E-1,9.682206810E-2,9.544762224E-2
7.053873077E0,2.338848561E-1,6.032289565E-2,2.093739063E-1
7.073333390E0,2.709949017E-1,2.443459118E-3,2.965748608E-1
7.092793807E0,2.787834108E-1,-8.261945844E-2,3.390299380E-1
7.112254223E0,2.648862302E-1,-1.482874304E-1,3.156643808E-1
7.131714640E0,1.989128441E-1,-1.400407553E-1,2.171624303E-1
7.151175057E0,7.826705277E-2,-3.878991306E-2,1.009454057E-1
7.170635369E0,-5.871937796E-2,1.032361463E-1,2.000582218E-2
7.190095786E0,-1.608865112E-1,1.939495653E-1,-8.552107029E-3
7.209556202E0,-2.036470473E-1,2.043342739E-1,-1.572976820E-2
7.229016619E0,-1.888335794E-1,1.085812151E-1,1.679878100E-3
7.248477036E0,-1.097265854E-1,-1.679878123E-2,4.780016840E-2
7.267937348E0,-1.886045001E-2,-1.076649204E-1,8.536835015E-2
7.287397765E0,5.963567272E-2,-1.446222365E-1,8.109229803E-2
7.306858182E0,9.506583214E-2,-1.531743407E-1,4.596757516E-2
7.326318598E0,6.513345987E-2,-1.409570426E-1,2.748891478E-3
7.345779015E0,-8.017600514E-3,-1.035415828E-1,-2.947422490E-2
7.365239327E0,-8.162680268E-2,-6.795870513E-2,-3.924806044E-2
7.384699744E0,-1.153770834E-1,-6.291907281E-2,-1.466075517E-2
7.404160161E0,-9.063705802E-2,-6.093376130E-2,2.244928107E-2
7.423620577E0,-4.115701467E-2,-7.925970852E-2,4.428769648E-2
7.443080994E0,9.926552884E-4,-1.495091617E-1,3.833176568E-2
7.462541307E0,2.512181364E-2,-2.354883701E-1,2.779434808E-2
7.482001723E0,3.749182448E-2,-3.188714087E-1,2.153298259E-2
7.501462140E0,2.298378758E-2,-3.416261375E-1,2.168569900E-2
7.520922557E0,1.626427472E-2,-3.375027776E-1,2.153298259E-2
7.540382973E0,3.535379842E-2,-3.356702030E-1,1.603520103E-2
7.559843286E0,9.705114365E-2,-3.460549116E-1,2.458730713E-2
7.579303702E0,1.946367919E-1,-3.672824502E-1,4.367683083E-2
7.598764119E0,2.851974964E-1,-4.126391709E-1,8.475748450E-2
7.618224536E0,3.583485484E-1,-4.596757591E-1,1.362228394E-1
7.637684848E0,4.032471180E-1,-5.161807537E-1,1.689041108E-1
7.657145265E0,4.330267608E-1,-5.369501114E-1,1.576031148E-1
7.676605682E0,4.373028278E-1,-4.709767401E-1,1.049160287E-1
7.696066098E0,3.847684562E-1,-3.498727977E-1,2.901607752E-2
7.715526515E0,2.948186100E-1,-2.035706937E-1,-5.085449293E-2
7.734986827E0,2.143371850E-1,-1.093447953E-1,-1.201876476E-1
7.754447244E0,1.628718227E-1,-1.821904182E-1,-1.762344837E-1
7.773907661E0,1.266780794E-1,-4.030180275E-1,-2.199113220E-1
7.793368077E0,6.643154658E-3,-5.737547278E-1,-2.357937992E-1
7.812828494E0,-2.117410004E-1,-7.412844300E-1,-1.346956789E-1
7.832288807E0,-3.850739002E-1,-8.897245526E-1,1.325576603E-1
7.851749223E0,-3.523926139E-1,-8.243620396E-1,4.495964646E-1
7.871209640E0,-6.650790572E-2,-3.297142684E-1,5.757400393E-1
7.890670057E0,2.389244884E-1,5.164861679E-1,2.232710719E-1
7.910130473E0,2.583194375E-1,1.289077401E0,-1.554650813E-1
7.929590786E0,1.402698308E-1,1.575420260E0,-2.397644222E-1
7.949051202E0,1.278998107E-1,1.610239506E0,-1.388190240E-1
7.968511619E0,1.446985900E-1,1.487303019E0,-5.222893879E-2
7.987972036E0,4.802924395E-2,1.356730700E0,1.038470119E-2
8.007432348E0,-9.674570709E-2,1.239902735E0,4.092793912E-2
8.026892765E0,-1.169042438E-1,1.303127289E0,8.093958721E-3
8.046353182E0,-7.567087561E-2,1.457523346E0,-8.277218044E-2
8.065813598E0,-8.132137358E-2,1.532048821E0,-2.086103261E-1
8.085273911E0,-1.608865112E-1,1.654985428E0,-3.358229101E-1
8.104734327E0,-1.619555205E-1,1.443168044E0,-3.923279047E-1
8.124194744E0,-6.421715766E-2,8.533781171E-1,-3.068068326E-1
8.143655161E0,9.689842910E-2,1.444695145E-1,-9.254601598E-2
8.163115473E0,2.651916742E-1,-4.477638900E-1,1.522580534E-1
8.182575890E0,4.205040336E-1,-1.000596523E0,2.681696415E-1
8.202036307E0,5.043452382E-1,-1.590997338E0,3.486510813E-1
8.221496619E0,4.179078639E-1,-1.974009514E0,4.094321132E-1
8.240957036E0,2.554178238E-1,-2.278831005E0,5.891790986E-1
8.260417452E0,-7.271581888E-1,-3.017519236E0,7.750346661E-1
8.279877869E0,-1.963090301E0,-2.871980667E0,5.528326333E-2
8.299338286E0,-1.120249629E0,-1.842062712E0,-5.479456782E-1
8.318798598E0,-3.395644724E-1,6.692023873E-1,3.772090003E-2
8.338259015E0,4.963276442E-3,2.058308840E0,2.338084877E-1
8.357719432E0,1.382081583E-2,1.474933028E0,1.209512278E-1
8.377179848E0,8.590286225E-2,8.958331943E-1,4.764745384E-2
8.396640161E0,1.427132785E-1,6.618719697E-1,6.185005978E-2
8.416100577E0,1.277471036E-1,6.310232878E-1,-3.665188700E-2
8.435560994E0,4.818195850E-2,6.401863098E-1,-1.881463528E-1
8.455021411E0,1.454621702E-1,7.273872495E-1,-2.243400961E-1
8.474481723E0,3.380373120E-1,1.053741693E0,-1.224783882E-1
8.493942140E0,3.922515512E-1,1.389717340E0,-2.596175298E-2
8.513402557E0,3.236819804E-1,1.220660567E0,-2.626718581E-2
8.532862869E0,2.743546367E-1,4.656316638E-1,-8.445205539E-2
8.552323286E0,3.056614697E-1,-4.457785785E-1,-4.703658819E-2
8.571783702E0,3.960694373E-1,-1.225394726E0,3.665188700E-2
8.591244119E0,5.180897117E-1,-1.847865939E0,1.174387559E-1
8.610704432E0,5.611556768E-1,-2.233321667E0,2.107483447E-1
8.630164848E0,3.600284159E-1,-2.442237377E0,3.454440236E-1
8.649625265E0,3.260490671E-2,-2.701244116E0,5.009090900E-1
8.669085682E0,-4.424951673E-1,-3.107163668E0,4.641045034E-1
8.688545994E0,-7.783181071E-1,-2.333656073E0,-1.974620372E-1
8.708006411E0,-7.300597429E-1,-1.342680812E0,-4.798342884E-1
8.727466827E0,-5.504655242E-1,3.889681399E-1,-6.841685623E-2
8.746927244E0,-2.598465979E-1,1.238528371E0,1.826485693E-1
8.766387557E0,-8.345939964E-2,1.054047227E0,1.928805560E-1
8.785847973E0,7.979421318E-2,8.955277801E-1,2.486219704E-1
8.805308390E0,6.116283685E-2,9.558506608E-1,2.460257858E-1
8.824768807E0,-1.947895139E-1,1.086117625E0,2.174678594E-1
8.844229119E0,-5.035816431E-1,1.279456258E0,1.580612659E-1
8.863689536E0,-7.244092822E-1,1.502727389E0,3.375028074E-2
8.883149952E0,-7.265473008E-1,1.609475970E0,-2.183841541E-2
8.902610369E0,-4.702895284E-1,1.625816584E0,-1.168278903E-1
8.922070682E0,-1.059086844E-1,1.554956317E0,-2.831358314E-1
8.941531098E0,2.706894577E-1,1.223867536E0,-3.711003661E-1
8.960991515E0,5.784125924E-1,2.585485280E-1,-1.783725172E-1
8.980451827E0,7.494547367E-1,-7.634282708E-1,6.307178736E-2
8.999912244E0,8.956041336E-1,-1.158810496E0,1.792888194E-1
9.019372661E0,9.122501612E-1,-1.182023406E0,1.412624866E-1
9.038833077E0,8.788053393E-1,-1.098640323E0,1.440113783E-1
9.058293390E0,7.219657898E-1,-1.010675788E0,2.371682525E-1
9.077753807E0,3.325395286E-1,-1.131016135E0,6.301070452E-1
9.097214223E0,-8.193223923E-2,-1.319926023E0,8.350521326E-1
9.116674536E0,-7.532726526E-1,-1.992946386E0,1.157436013E0
9.136134952E0,-1.904447317E0,-2.846629858E0,1.446833253E0
9.155595369E0,-2.572427988E0,-2.501338482E0,6.695078015E-1
9.175055786E0,-1.066340804E0,-1.249371171E0,-4.392117858E-1
9.194516098E0,8.226057887E-1,1.594967961E0,2.336557768E-2
9.213976515E0,5.555051565E-1,2.413068533E0,7.696896046E-2
9.233436932E0,1.538615674E-1,1.316413641E0,9.056070447E-2
9.252897348E0,3.843103051E-1,4.474584460E-1,3.579667509E-1
9.272357661E0,5.898662806E-1,6.977602839E-1,3.089448512E-1
9.291818077E0,5.631409883E-1,9.098830819E-1,1.970038861E-1
9.311278494E0,4.296670258E-1,1.166140914E0,1.116355360E-1
9.330738807E0,1.738673896E-1,1.529147267E0,-1.404988952E-2
9.350199223E0,-5.444332212E-2,1.600007534E0,-5.467239767E-2
9.369659640E0,-1.468366235E-1,1.658039689E0,-5.803215317E-3
9.389120057E0,-7.261654735E-2,1.363908291E0,-6.856957078E-2
9.408580369E0,-3.321577236E-2,4.676169753E-1,-1.476765573E-1
9.428040786E0,1.149189398E-1,-3.449858725E-1,-1.232419685E-1
9.447501202E0,3.107011020E-1,-7.680097222E-1,-5.406153202E-2
9.466961515E0,4.898371994E-1,-9.792162180E-1,-8.399390616E-3
9.486421932E0,5.629882812E-1,-1.111468434E0,-2.901607752E-2
9.505882348E0,5.396226645E-1,-1.200043917E0,-3.711003438E-2
9.525342765E0,3.071886301E-1,-1.175303817E0,-4.886918236E-3
9.544803077E0,-1.364519149E-1,-1.339168310E0,-2.244928107E-2
9.564263494E0,-6.883682609E-1,-2.129780054E0,-2.304487377E-1
9.583723911E0,-6.434696913E-1,-2.871828079E0,9.010255337E-2
9.603184327E0,6.723330617E-1,-1.383303285E0,6.620246768E-1
9.622644640E0,8.244383931E-1,1.228296399E0,7.788526267E-2
9.642105057E0,5.216021538E-1,1.611613989E0,4.127918780E-1
9.661565473E0,3.442986608E-1,9.645555019E-1,1.740964651E-1
9.681025786E0,2.864192128E-1,5.525271893E-1,-9.162971983E-4
9.700486202E0,3.108538091E-1,5.913171172E-1,-1.163697392E-1
9.719946619E0,2.010508776E-1,8.749110699E-1,-9.071341902E-2
9.739407036E0,1.124754772E-1,1.202181935E0,-7.483093441E-2
9.758867348E0,7.979421318E-2,1.442251801E0,-1.067486182E-1
9.778327765E0,4.573849961E-2,1.494786143E0,-2.183841616E-1
9.797788182E0,-1.229365356E-2,1.433852315E0,-3.544542789E-1
9.817248494E0,-1.019380614E-1,1.236695766E0,-3.813323379E-1
9.836708911E0,-1.469893306E-1,9.999856353E-1,-4.101957083E-1
9.856169327E0,-9.109520912E-2,3.816377819E-1,-3.895790279E-1
9.875629640E0,-4.008800164E-2,-3.984365463E-1,-2.131918073E-1
9.895090057E0,-5.841394514E-2,-1.088713765E0,-1.440113783E-1
9.914550473E0,-1.049923822E-1,-1.552818298E0,-1.592829973E-1
9.934010786E0,-1.199585721E-1,-1.615890026E0,-2.244928032E-1
9.953471202E0,-1.937204897E-1,-1.472336888E0,-3.129154742E-1
9.972931619E0,-4.221839309E-1,-1.427896380E0,-3.089448512E-1
9.992392036E0,-1.158886790E0,-2.018450022E0,-3.688096106E-1
1.001185235E1,-8.407790065E-1,-1.894902587E0,1.997527778E-1
1.003131277E1,-4.909825698E-2,-8.277218044E-2,3.029889166E-1
1.005077318E1,-2.526689470E-1,1.859014273E0,1.342375278E-1
1.007023349E1,-5.107592940E-1,1.500283957E0,3.315468729E-1
1.008969391E1,-2.007454336E-1,7.845031023E-1,4.120282829E-1
1.010915433E1,1.495855153E-1,6.659952998E-1,3.701840639E-1
1.012861464E1,3.281107545E-1,9.025527239E-1,2.762635946E-1
1.014807506E1,2.856556475E-1,1.110399485E0,1.673769504E-1
1.016753547E1,1.650098413E-1,1.163391948E0,2.290742937E-3
1.018699579E1,8.300124854E-2,1.197447658E0,-1.154534444E-1
1.020645620E1,6.116283685E-2,1.359784961E0,-5.925388262E-2
1.022591662E1,2.625955045E-1,1.933692455E0,8.689551800E-2
1.024537704E1,4.944186807E-1,1.513112068E0,6.765327603E-2
1.026483735E1,6.396517754E-1,4.069886506E-1,1.893680729E-2
1.028429776E1,6.223948598E-1,-6.721040010E-1,-4.825831577E-2
1.030375818E1,4.541015923E-1,-1.426369309E0,-1.262962967E-1
1.032321849E1,3.038288653E-1,-1.977216601E0,-1.459966749E-1
1.034267891E1,1.729510874E-1,-2.202625751E0,-6.750056148E-2
1.036213933E1,1.550069358E-2,-2.262643099E0,1.424842030E-1
1.038159964E1,-2.822958827E-1,-2.464534044E0,3.167333901E-1
1.040106006E1,-1.191262722E0,-3.378082275E0,2.596175373E-1
1.042052047E1,-1.825722158E-1,-1.676823854E0,5.027416945E-1
1.043998079E1,2.311359644E-1,1.277776361E0,1.511890348E-2
1.045944120E1,-1.547778696E-1,1.740659237E0,2.406807244E-1
1.047890162E1,-1.570686102E-1,8.576541543E-1,3.999637067E-1
1.049836204E1,9.766200930E-2,3.668242991E-1,4.001164436E-1
1.051782235E1,1.358410567E-1,4.810560048E-1,3.329212964E-1
1.053728276E1,-8.025235683E-2,8.668171167E-1,2.354883701E-1
1.055674318E1,-4.278344214E-1,1.384983182E0,4.459312931E-2
1.057620349E1,-6.440805793E-1,1.744782567E0,-1.244636998E-1
1.059566391E1,-5.248091817E-1,1.748905897E0,-1.601992846E-1
1.061512433E1,-2.929860055E-1,1.556788921E0,-1.180496216E-1
1.063458464E1,-9.934188426E-2,1.599702120E0,-1.760817766E-1
1.065404506E1,1.121700481E-1,1.334892273E0,-1.721111536E-1
1.067350547E1,4.712058306E-1,6.669116020E-1,-1.994473487E-1
1.069296579E1,8.444442153E-1,-9.239330143E-2,-2.296851575E-1
1.071242620E1,9.409608245E-1,-7.269290686E-1,-1.430950761E-1
1.073188662E1,6.999746561E-1,-1.415526390E0,-2.871064544E-1
1.075134693E1,3.329976499E-1,-1.836259484E0,-5.636754632E-1
1.077080735E1,-1.839466542E-1,-1.909105182E0,-4.413498044E-1
1.079026777E1,-5.077049732E-1,-1.948811412E0,-7.086031139E-2
1.080972808E1,4.069886729E-2,-2.039830208E0,4.292852283E-1
1.082918849E1,-1.954003721E-1,-2.414137602E0,1.056337953E0
1.084864891E1,-1.661017656E0,-2.141233683E0,6.855430007E-1
1.086810933E1,9.017891437E-2,-1.335961223E0,-3.556760252E-1
1.088756964E1,4.986947477E-1,1.326951027E0,-5.497783050E-2
1.090703006E1,-9.926552884E-4,2.208581686E0,-1.646280587E-1
1.092649047E1,-1.112537459E-1,1.529147267E0,-3.023780696E-2
1.094595079E1,4.209621847E-1,1.145371437E0,2.484692484E-1
1.096541120E1,8.694896698E-1,1.220049739E0,2.987128794E-1
1.098487162E1,7.696132660E-1,1.292742610E0,2.390008420E-1
1.100433193E1,1.071304083E-1,1.533881426E0,-6.383536756E-2
1.102379235E1,-6.292670965E-1,1.945909739E0,-3.005454838E-1
1.104325276E1,-1.053207278E0,1.972024202E0,-2.477056682E-1
1.106271308E1,-1.159345031E0,1.908494234E0,-2.344193608E-1
1.108217349E1,-7.572432756E-1,1.675907493E0,-1.678351015E-1
1.110163391E1,-1.196531355E-1,6.939423680E-1,-1.678351015E-1
1.112109422E1,4.406625926E-1,-6.340776682E-1,-1.305723488E-1
1.114055464E1,5.834522247E-1,-1.283121467E0,-2.412915789E-2
1.116001506E1,4.615846872E-1,-1.603367329E0,1.710421406E-2
1.117947537E1,3.493382931E-1,-1.866955519E0,7.330377400E-2
1.119893579E1,2.690095901E-1,-1.789833784E0,1.739437431E-1
1.121839620E1,-4.497491941E-2,-1.628718257E0,1.847866029E-1
1.123785652E1,-3.384954333E-1,-2.255312681E0,1.171333194E-1
1.125731693E1,-5.351939201E-1,-1.987601280E0,1.059850380E-1
1.127677735E1,7.175370455E-1,-1.585804939E0,1.028543591E0
1.129623766E1,1.058552265E0,-7.078395486E-1,7.363975048E-1
1.131569808E1,4.165334105E-1,7.959567904E-1,5.177079141E-2
1.133515849E1,-3.711767197E-1,4.839576185E-1,7.024944760E-3
1.135461881E1,-7.751110196E-1,2.976438701E-1,-5.787943676E-2
1.137407922E1,-7.964913249E-1,3.513999581E-1,1.527161989E-2
1.139353964E1,-6.396517754E-1,6.368265152E-1,5.482511222E-2
1.141299995E1,-4.901426136E-1,9.550870657E-1,1.985310577E-2
1.143246037E1,-4.377609789E-1,1.144149780E0,-2.153298259E-2
1.145192079E1,-3.229183853E-1,1.147356749E0,-3.741546720E-2
1.147138110E1,-6.024653837E-2,1.481957912E0,3.344484791E-2
1.149084152E1,1.098793000E-1,1.851531148E0,-5.940660089E-2
1.151030193E1,7.185296714E-2,1.556788921E0,-1.464548260E-1
1.152976224E1,1.637881249E-1,6.747001410E-1,-1.675296724E-1
1.154922266E1,3.099375069E-1,-5.755873322E-1,-1.250745654E-1
1.156868308E1,2.731329203E-1,-1.747073293E0,-2.550360374E-2
1.158814339E1,5.367974192E-2,-2.639241219E0,-9.162971750E-3
1.160760381E1,-1.657734364E-1,-3.005760193E0,-1.186604798E-1
1.162706422E1,-1.879172772E-1,-2.963610411E0,-3.463603258E-1
1.164652454E1,-3.090212345E-1,-2.666119337E0,-7.849612236E-1
1.166598495E1,-7.263945937E-1,-2.464075804E0,-1.594662547E0
1.168544537E1,8.577305079E-1,-3.145037413E0,3.894263133E-2
1.170490568E1,1.414533734E0,-3.100138903E-1,1.227380037E0
1.172436610E1,1.789070219E-1,2.341139317E0,7.299833745E-2
1.174382652E1,-5.148826241E-1,1.845727921E0,1.301141977E-1
1.176328683E1,-2.658025324E-1,8.066469431E-1,3.816377819E-1
1.178274724E1,2.890154123E-1,7.136427760E-1,4.491383433E-1
1.180220756E1,5.321395993E-1,1.069624186E0,3.138317764E-1
1.182166797E1,4.466184974E-1,1.397505879E0,1.185077652E-1
1.184112839E1,2.467130125E-1,1.739895582E0,-1.154534444E-1
1.186058881E1,-4.199695308E-3,1.911854029E0,-2.386954129E-1
1.188004912E1,-5.841394514E-2,1.733328819E0,-1.666133702E-1
1.189950954E1,-3.199404106E-2,1.824958563E0,-9.529490769E-2
1.191896985E1,4.848739132E-2,1.502116442E0,-3.130681813E-2
1.193843027E1,2.117410004E-1,4.214966893E-1,-1.099556591E-2
1.195789068E1,3.191004992E-1,-7.385355234E-1,-4.153880477E-2
1.197735099E1,2.493091822E-1,-1.278998137E0,-4.825831577E-2
1.199681141E1,1.747836918E-1,-1.538310289E0,-2.764163166E-2
1.201627183E1,1.955530941E-1,-1.629329085E0,6.414080411E-2
1.203573214E1,9.155336022E-2,-1.336724877E0,1.621845961E-1
1.205519256E1,-9.384410083E-2,-1.249829292E0,2.868010104E-1
1.207465297E1,-5.351939201E-1,-1.167667985E0,2.628245652E-1
1.209411329E1,-9.238566160E-1,-9.926552773E-1,8.521563560E-2
1.211357370E1,-3.653734922E-1,-1.452636480E0,5.506945848E-1
1.213303412E1,1.062141135E-1,1.196073294E0,1.933387071E-1
1.215249443E1,4.974730015E-1,1.703854561E0,7.666353136E-2
1.217195485E1,5.799397230E-1,8.272636533E-1,6.215549260E-2
1.219141527E1,4.438696206E-1,2.817613780E-1,-7.910698652E-2
1.221087558E1,1.654679924E-1,4.537198246E-1,-2.371682525E-1
1.223033599E1,-1.274416596E-1,8.768963814E-1,-2.174678594E-1
1.224979641E1,-3.227656782E-1,1.046411395E0,-2.087630332E-1
1.226925672E1,-4.017199576E-1,1.209970355E0,-2.183841616E-1
1.228871714E1,-2.922224402E-1,1.351996422E0,-2.266308367E-1
1.230817756E1,-8.804088831E-2,1.457676053E0,-2.817613780E-1
1.232763787E1,5.627591908E-2,1.480888963E0,-3.052796721E-1
1.234709829E1,2.091448307E-1,1.271056890E0,-3.582721949E-1
1.236655860E1,4.105774760E-1,4.101957083E-1,-3.236056268E-1
1.238601902E1,4.939605296E-1,-6.644681692E-1,-1.713475734E-1
1.240547943E1,4.738020003E-1,-1.506239772E0,3.558287397E-2
1.242493974E1,4.524217248E-1,-2.153450966E0,3.161225095E-2
1.244440016E1,2.685514390E-1,-2.453843832E0,-2.093739063E-1
1.246386058E1,-8.323032409E-3,-2.201403856E0,-4.682278633E-1
1.248332089E1,-1.000291109E-2,-1.678503752E0,-3.149007857E-1
1.250278131E1,1.063668281E-1,-1.193171620E0,-2.687804997E-1
1.252224172E1,-2.387717664E-1,-1.642768145E0,-1.313359290E-1
1.254170204E1,-2.806160152E-1,-1.659261465E0,3.023780584E-1
1.256116245E1,1.129336283E-1,5.728384256E-1,2.171624303E-1
1.258062277E1,-2.758817971E-1,1.743102670E0,2.932151034E-2
1.260008318E1,-5.321395993E-1,1.263421059E0,6.261364091E-3
1.261954360E1,-2.082285285E-1,5.273290277E-1,1.058323234E-1
1.263900391E1,2.377027571E-1,5.542070866E-1,1.450803876E-1
1.265846433E1,5.846739411E-1,8.095485568E-1,2.209803313E-1
1.267792474E1,7.966440320E-1,9.330959320E-1,3.457494676E-1
1.269738506E1,8.265764117E-1,1.021824002E0,3.675878942E-1
1.271684547E1,4.628064334E-1,1.181870580E0,2.162461281E-1
1.273630589E1,-2.975675166E-1,1.410944939E0,2.504545636E-2
1.275576620E1,-8.765146136E-1,1.470504284E0,1.756236330E-2
1.277522662E1,-1.046182275E0,1.407432437E0,-1.832594397E-3
1.279468704E1,-7.592285872E-1,1.096807718E0,-3.985892609E-2
1.281414735E1,-2.818377316E-1,1.817322671E-1,-1.139262840E-1
1.283360776E1,8.819360286E-2,-7.298306823E-1,-1.650862098E-1
1.285306818E1,2.792415619E-1,-1.229670763E0,-1.835648715E-1
1.287252849E1,3.639990389E-1,-1.549611211E0,-1.716530025E-1
1.289198891E1,5.034289360E-1,-1.670715213E0,-9.178243577E-2
1.291144922E1,5.649735332E-1,-1.548694968E0,5.253437161E-2
1.293090964E1,3.789652288E-1,-1.664148331E0,2.903134823E-1
1.295037006E1,-4.960985482E-1,-2.846477270E0,4.625773430E-1
1.296983037E1,-5.503128171E-1,-2.904051065E0,3.185659945E-1
1.298929079E1,9.140064567E-2,-1.362381220E0,1.266017258E-1
1.300875120E1,-1.708130687E-1,1.155908823E0,-5.955931544E-2
1.302821152E1,-5.127446055E-1,1.382234335E0,1.563813835E-1
1.304767193E1,-1.824194938E-1,8.889609575E-1,1.678351015E-1
1.306713224E1,1.277471036E-1,6.560688019E-1,1.522580534E-1
1.308659266E1,1.385899484E-1,7.380773425E-1,4.764745384E-2
1.310605308E1,-7.918334752E-2,9.425643682E-1,-9.269873053E-2
1.312551339E1,-2.587775886E-1,1.027016401E0,-1.359174103E-1
1.314497381E1,-2.114355713E-1,1.034194112E0,-9.957095981E-2
1.316443422E1,-1.885281354E-1,1.518457174E0,-6.047561392E-2
1.318389454E1,-2.551124096E-1,1.950338483E0,-4.993819445E-2
1.320335495E1,-3.102429509E-1,1.717904449E0,-7.009673119E-2
1.322281537E1,-1.882227063E-1,6.974548697E-1,-2.331976295E-1
1.324227568E1,-4.650207981E-2,-5.535961986E-1,-2.897026241E-1
1.326173610E1,-9.850194678E-3,-1.275180221E0,-2.393062711E-1
1.328119641E1,-2.909243479E-2,-1.518304467E0,-2.278525680E-1
1.330065683E1,4.482220486E-2,-1.439197421E0,-2.469420880E-1
1.332011724E1,1.118646115E-1,-1.181412458E0,-1.902843714E-1
1.333957756E1,2.603811212E-2,-1.008995891E0,-1.001818255E-1
1.335903797E1,-2.158643454E-1,-1.250134826E0,-7.834340632E-2
1.337849839E1,-8.061124086E-1,-2.014021158E0,-3.405570984E-2
1.339795870E1,-5.946004987E-1,-3.079980135E0,5.013672709E-1
1.341741912E1,4.556287527E-1,-1.731343508E0,2.547306120E-1
1.343687954E1,1.897498667E-1,1.412166595E0,-4.627300799E-2
1.345633985E1,-1.121700481E-1,1.969428062E0,7.635809481E-2
1.347580026E1,-5.841394514E-2,1.065042734E0,3.970621154E-2
1.349526058E1,1.558468789E-1,5.913171172E-1,-5.589412898E-2
1.351472099E1,4.757873118E-1,6.598866582E-1,-7.910698652E-2
1.353418141E1,6.369028687E-1,6.885973215E-1,-8.323032409E-2
1.355364172E1,6.850084662E-1,8.468112946E-1,-8.246674389E-2
1.357310214E1,7.482330203E-1,1.107497811E0,-3.726275265E-2
1.359256256E1,6.252964735E-1,1.391397238E0,-6.185005978E-2
1.361202287E1,1.824194938E-1,1.564271927E0,-1.375972927E-1
1.363148329E1,-1.718820781E-1,1.778685570E0,-8.765909821E-2
1.365094360E1,-3.077994883E-1,1.310457706E0,6.750056148E-2
1.367040402E1,-2.279289216E-1,2.977965772E-2,1.036942974E-1
1.368986443E1,1.137735695E-2,-1.197753072E0,3.756818548E-2
1.370932474E1,1.651625633E-1,-1.798385859E0,5.360338464E-2
1.372878516E1,2.099084109E-1,-2.002872944E0,1.163697392E-1
1.374824547E1,2.158643454E-1,-1.942244530E0,1.994473487E-1
1.376770589E1,1.796706021E-1,-1.534645081E0,2.964221239E-1
1.378716631E1,1.306487024E-1,-1.519678831E0,2.489273995E-1
1.380662662E1,-1.220965981E-1,-1.806174397E0,3.367392123E-1
1.382608704E1,-5.103011727E-1,-1.849240422E0,3.900371492E-1
1.384554735E1,-4.168388546E-1,-1.496618748E0,4.488328993E-1
1.386500777E1,2.019671649E-1,-1.335808516E0,4.824304581E-1
1.388446818E1,4.684569240E-1,1.320995092E0,-1.368337125E-1
1.390392849E1,6.604975462E-2,2.083812475E0,-7.360920310E-2
1.392338891E1,-7.933606207E-2,1.715308309E0,7.406735420E-2
1.394284933E1,-7.338013500E-2,1.279914379E0,6.307178736E-2
1.396230964E1,-5.077813566E-2,1.329699874E0,-4.428769462E-3
1.398177006E1,-1.369100660E-1,1.660330415E0,-1.153007299E-1
1.400123047E1,-2.668715417E-1,1.900858521E0,-2.315177470E-1
1.402069079E1,-2.774089575E-1,1.986532211E0,-2.533561587E-1
1.404015120E1,-1.098793000E-1,1.675449371E0,-1.812741160E-1
1.405961152E1,6.009382382E-2,1.397200465E0,-1.267544478E-1
1.407907193E1,1.434768587E-1,1.431256175E0,-5.482511222E-2
1.409853235E1,3.194059134E-1,9.059124589E-1,-2.260199748E-2
1.411799266E1,4.140899479E-1,-8.246674389E-2,-7.727439702E-2
1.413745308E1,3.655261993E-1,-9.680679440E-1,-5.238165334E-2
1.415691349E1,3.065777719E-1,-1.527161956E0,9.315688163E-3
1.417637381E1,3.197113574E-1,-1.909868717E0,3.161225095E-2
1.419583422E1,1.306487024E-1,-2.117562771E0,7.498364896E-2
1.421529454E1,-2.161697745E-1,-2.062584877E0,-3.359756200E-3
1.423475495E1,-3.256672919E-1,-1.891084671E0,-4.856374860E-2
1.425421537E1,-6.062069535E-1,-1.851378441E0,1.420260593E-2
1.427367568E1,-1.451032877E0,-2.550360441E0,6.322450191E-2
1.429313610E1,-5.923097730E-1,-1.554039955E0,3.459021747E-1
1.431259641E1,2.588539571E-2,1.325881958E0,1.169806048E-1
1.433205683E1,-4.970912263E-2,2.310290575E0,8.765909821E-2
1.435151724E1,-1.010217592E-1,1.298393130E0,3.445277214E-1
1.437097756E1,2.413679510E-1,4.553996921E-1,4.563159943E-1
1.439043797E1,3.852266073E-1,3.886627257E-1,3.802633286E-1
1.440989839E1,2.370918989E-1,5.670352578E-1,2.145662606E-1
1.442935870E1,-9.857830405E-2,8.316923976E-1,-5.925388262E-2
1.444881912E1,-4.105774760E-1,1.169042468E0,-2.967275679E-1
1.446827943E1,-4.443277717E-1,1.463784695E0,-3.019199073E-1
1.448773985E1,-2.625955045E-1,1.459203243E0,-1.748600453E-1
1.450720027E1,-8.009964228E-2,1.616500974E0,-1.374445739E-3
1.452666058E1,1.578321904E-1,1.650403976E0,1.394298822E-1
1.454612099E1,2.697731555E-1,8.720094562E-1,8.277218044E-2
1.456558141E1,2.949713171E-1,-1.626427472E-1,-1.572976820E-2
1.458504172E1,3.223075271E-1,-1.009606719E0,-6.459894776E-2
1.460450214E1,3.250564337E-1,-1.464242935E0,-9.010255337E-2
1.462396245E1,4.113410711E-1,-1.634826899E0,-3.481929377E-2
1.464342287E1,5.191587210E-1,-1.654069066E0,4.046979174E-2
1.466288329E1,3.824777007E-1,-1.516013622E0,6.322450191E-2
1.468234360E1,1.260672212E-1,-1.271209598E0,7.620538026E-2
1.470180402E1,-2.845866382E-1,-1.323133111E0,4.902189970E-2
1.472126443E1,-8.514691591E-1,-2.360076189E0,9.789107740E-2
1.474072474E1,-4.087449014E-1,-2.020282507E0,7.593049407E-1
1.476018516E1,2.777144015E-1,-1.912006736E-1,4.989238083E-1
1.477964547E1,2.060905099E-1,1.528994560E0,-5.369501114E-1
1.479910589E1,-1.069776937E-1,1.543655276E0,-2.423606068E-1
1.481856631E1,-1.546251476E-1,5.949822664E-1,1.408043355E-1
1.483802662E1,-1.794415340E-2,-2.306014486E-2,9.407317638E-2
1.485748704E1,1.066722646E-1,-1.806632578E-1,-1.145371422E-2
1.487694745E1,2.438113987E-1,5.421425030E-2,-6.230820715E-2
1.489640777E1,4.139372408E-1,3.672824502E-1,-1.356119812E-1
1.491586818E1,4.909062088E-1,6.682860851E-1,-2.275471240E-1
1.493532849E1,3.528507650E-1,9.918916821E-1,-2.641990185E-1
1.495478891E1,1.140026376E-1,1.126587391E0,-2.877173126E-1
1.497424933E1,-2.955058403E-2,1.099556565E0,-2.162461281E-1
1.499370964E1,3.321577236E-2,9.857830405E-1,-1.232419685E-1
1.501317006E1,2.302196622E-1,4.628827870E-1,-2.394589931E-1
1.503263037E1,3.759109080E-1,-2.574795187E-1,-3.404043913E-1
1.505209079E1,4.316523373E-1,-9.448550940E-1,-3.202458620E-1
1.507155120E1,4.037052691E-1,-1.424078465E0,-2.877173126E-1
1.509101152E1,3.250564337E-1,-1.726456642E0,-3.119991720E-1
1.511047193E1,2.457967103E-1,-2.004094601E0,-1.878409237E-1
1.512993224E1,-4.909825698E-2,-2.114355803E0,1.443168074E-1
1.514939266E1,-4.307360351E-1,-1.764941096E0,2.419024557E-1
1.516885308E1,-1.068173409E0,-2.241262913E0,3.353647590E-1
1.518831339E1,-1.648571342E-1,-1.631314397E0,5.815432668E-1
1.520777381E1,-5.413788930E-2,2.705978155E0,-2.533561587E-1
1.522723412E1,-4.391354322E-1,2.919780970E0,-1.043051630E-1
1.524669454E1,-3.878227770E-1,1.618180752E0,4.079049528E-1
1.526615495E1,-2.222020552E-2,7.536544204E-1,4.877755344E-1
1.528561526E1,1.964693815E-1,6.294961572E-1,3.326158822E-1
1.530507568E1,1.663842946E-1,7.612902522E-1,1.363755614E-1
1.532453610E1,3.901898861E-2,1.155297995E0,-2.041815519E-1
1.534399641E1,-1.094211563E-1,1.605505347E0,-3.451386094E-1
1.536345683E1,-3.129918277E-1,2.006538153E0,-2.637408674E-1
1.538291714E1,-5.300015807E-1,2.204611063E0,-1.904370934E-1
1.540237756E1,-4.302778840E-1,1.539837360E0,-1.301141977E-1
1.542183797E1,-1.514181048E-1,1.537852138E-1,-1.033888608E-1
1.544129829E1,3.061959706E-2,-8.662062287E-1,-8.979712427E-2
1.546075870E1,1.191949919E-1,-1.303738117E0,-4.352411628E-2
1.548021902E1,1.954003721E-1,-1.389717340E0,-4.001164436E-2
1.549967943E1,2.318995446E-1,-1.235932112E0,3.054323839E-3
1.551913985E1,1.298851222E-1,-1.093447924E0,1.866191924E-1
1.553860016E1,-7.765618712E-2,-1.129794359E0,3.063486814E-1
1.555806058E1,-8.277981281E-1,-2.092211962E0,3.920224607E-1
1.557752099E1,-6.437751055E-1,-2.825555086E0,3.656025827E-1
1.559698131E1,6.918807030E-1,-1.434310555E0,6.788234711E-1
1.561644172E1,5.561160445E-1,1.677281976E0,-2.622137070E-1
1.563590204E1,3.749182448E-2,1.826180220E0,-2.437350452E-1
1.565536245E1,3.611737862E-2,1.136361241E0,-9.315688163E-3
1.567482287E1,1.873064190E-1,6.200277805E-1,5.513054505E-2
1.569428318E1,1.761581302E-1,7.107411623E-1,5.787943676E-2
1.571374360E1,2.924515121E-2,1.096196890E0,-8.246674202E-3
1.573320391E1,-1.781434417E-1,1.337641120E0,-1.070540547E-1
1.575266433E1,-3.070359230E-1,1.157436013E0,-1.360701323E-1
1.577212474E1,-2.523635030E-1,8.326086998E-1,-5.864302069E-2
1.579158506E1,-6.482802331E-2,1.112232089E0,2.703076601E-2
1.581104547E1,8.529199660E-2,1.187673807E0,-3.940077871E-2
1.583050579E1,2.380081862E-1,5.644390583E-1,-1.545487940E-1
1.584996620E1,4.133263826E-1,-3.390299380E-1,-1.493564397E-1
1.586942662E1,5.425242782E-1,-9.807434082E-1,-1.214093715E-1
1.588888693E1,5.924624801E-1,-1.244178891E0,-4.276053607E-2
1.590834735E1,6.175079346E-1,-1.269835114E0,-4.276053514E-3
1.592780766E1,4.951822758E-1,-1.216995358E0,-3.604102135E-2
1.594726808E1,1.013271958E-1,-1.109483123E0,-8.277218044E-2
1.596672849E1,-1.815031916E-1,-1.029765248E0,-1.107192412E-1
1.598618881E1,-4.260018170E-1,-1.092226267E0,-1.852447391E-1
1.600564922E1,-1.333899617E0,-1.400407553E0,-4.082103968E-1
1.602510954E1,-1.397582293E0,-2.622747898E0,-3.054323792E-1
1.604456995E1,6.032289471E-3,-7.044798136E-1,-9.666935354E-2
1.606403037E1,2.344957143E-1,1.499673009E0,-1.815795600E-1
1.608349068E1,2.172387838E-1,1.082452416E0,1.314886510E-1
1.610295110E1,3.258199990E-1,2.703076601E-1,1.745546162E-1
1.612241152E1,3.313177824E-1,3.197877109E-1,6.017018110E-2
1.614187183E1,1.998291463E-1,7.279980779E-1,-1.314886510E-1
1.616133224E1,1.724929363E-1,1.120784163E0,-2.336557806E-1
1.618079256E1,2.161697745E-1,1.324354887E0,-2.881754637E-1
1.620025297E1,2.832121849E-1,1.219591498E0,-2.991710305E-1
1.621971339E1,3.720930219E-1,1.292131782E0,-2.165515572E-1
1.623917370E1,4.788416326E-1,1.867108226E0,-6.307178736E-2
1.625863412E1,4.705949426E-1,1.651778340E0,-6.307178736E-2
1.627809443E1,3.449095190E-1,8.258891702E-1,-6.276635826E-2
1.629755485E1,1.868482679E-1,-2.241873741E-1,4.963276163E-2
1.631701527E1,1.040760875E-1,-9.732602835E-1,2.367101051E-2
1.633647558E1,1.294269711E-1,-1.416595459E0,-1.374445762E-2
1.635593599E1,1.495855153E-1,-1.546098709E0,-1.023198478E-2
1.637539631E1,5.474875495E-2,-1.347720385E0,6.582067907E-2
1.639485672E1,-4.008800164E-2,-9.813542962E-1,1.698204130E-1
1.641431714E1,-5.087739825E-1,-1.544724345E0,2.157879770E-1
1.643377745E1,-5.310705900E-1,-3.287827015E0,9.179770350E-1
1.645323787E1,5.582540631E-1,-1.754709125E0,9.750928879E-1
1.647269818E1,3.140608668E-1,1.080467105E0,8.842267841E-2
1.649215860E1,-2.013563067E-1,1.701105714E0,-2.648098767E-1
1.651161902E1,-3.606393039E-1,1.454316378E0,-3.052796721E-1
1.653107933E1,-2.105192691E-1,1.087339282E0,1.985310577E-2
1.655053974E1,-1.121700481E-1,1.177289128E0,5.696314201E-2
1.657000016E1,-1.718820781E-1,1.437059402E0,-1.069013379E-3
1.658946047E1,-2.325104028E-1,1.566715479E0,6.108647794E-4
1.660892089E1,-2.401462197E-1,1.485928535E0,3.054323897E-4
1.662838120E1,-1.738673896E-1,1.517998934E0,2.046396956E-2
1.664784162E1,-2.771798894E-2,1.490815520E0,5.451968312E-2
1.666730193E1,-2.290742996E-4,1.071915030E0,-5.238165334E-2
1.668676235E1,3.283398226E-3,3.297142684E-1,-1.805105358E-1
1.670622276E1,-1.000291109E-2,-6.047561169E-1,-1.782197952E-1
1.672568308E1,-3.627009690E-2,-1.251661897E0,-1.275180280E-1
1.674514349E1,-6.543888897E-2,-1.559232354E0,-1.346956789E-1
1.676460381E1,-1.329394430E-1,-1.566410065E0,-1.629481763E-1
1.678406422E1,-1.825722158E-1,-1.414610147E0,-1.985310465E-1
1.680352464E1,-1.373682171E-1,-1.332754254E0,-1.828012913E-1
1.682298495E1,-2.596938908E-1,-1.572365999E0,-1.449276656E-1
1.684244537E1,-6.903535724E-1,-1.815184712E0,1.061377525E-1
1.686190568E1,3.253618479E-1,-1.665064692E0,5.650499463E-1
1.688136610E1,2.372446060E-1,7.234166265E-1,4.306596518E-2
1.690082652E1,-1.700494885E-1,7.701478004E-1,1.730274558E-1
1.692028683E1,-1.926514804E-1,3.313941509E-2,4.807505906E-1
1.693974724E1,-4.497491941E-2,-5.329795480E-1,5.230529904E-1
1.695920756E1,1.534034163E-1,-3.203985691E-1,3.228420317E-1
1.697866797E1,1.761581302E-1,1.209512278E-1,1.649334878E-1
1.699812839E1,-3.825540841E-2,7.244856358E-1,-2.794706449E-2
1.701758870E1,-1.428660005E-1,1.366351843E0,-1.675296724E-1
1.703704912E1,-4.925097153E-2,1.818391681E0,-1.469129771E-1
1.705650943E1,-9.567669779E-2,1.957210779E0,-1.353065521E-1
1.707596985E1,-1.294269711E-1,2.397033453E0,6.200277433E-2
1.709543026E1,8.254310489E-2,2.023336887E0,1.348484010E-1
1.711489058E1,3.143662810E-1,8.892664313E-1,1.663079411E-1
1.713435099E1,4.475347996E-1,-4.155407548E-1,1.035415828E-1
1.715381131E1,4.185187221E-1,-1.332448840E0,2.412915789E-2
1.717327172E1,4.255436659E-1,-1.863137603E0,-6.872228533E-2
1.719273214E1,4.058432877E-1,-1.870926142E0,-1.336266696E-1
1.721219245E1,2.238055766E-1,-1.628870964E0,-3.390299529E-2
1.723165287E1,-1.963166744E-1,-2.071442366E0,3.037525117E-1
1.725111329E1,-9.847903848E-1,-2.459952354E0,2.976438701E-1
1.727057360E1,-5.666534305E-1,-3.323104382E0,8.252783418E-1
1.729003402E1,5.063305497E-1,-1.126281977E0,2.339612097E-1
1.730949433E1,1.069776937E-1,1.564882874E0,-3.365865052E-1
1.732895474E1,-8.193223923E-2,1.903301954E0,-2.309068888E-1
1.734841516E1,9.338594973E-2,1.171333194E0,7.498364896E-2
1.736787547E1,1.541669965E-1,6.375901103E-1,9.407317638E-2
1.738733589E1,6.543888897E-2,8.106175661E-1,-5.345067009E-3
1.740679620E1,-1.505018175E-1,1.137735605E0,-8.689551800E-2
1.742625662E1,-3.169624507E-1,1.364213824E0,-1.450803876E-1
1.744571704E1,-3.673588037E-1,1.318093419E0,-1.533270627E-1
1.746517735E1,-2.451858521E-1,1.226463795E0,-1.191186309E-1
1.748463777E1,-1.117118970E-1,1.585652232E0,-1.120936871E-1
1.750409818E1,-3.123046272E-2,1.524565816E0,-1.756236255E-1
1.752355849E1,1.770744324E-1,8.275690675E-1,-2.866483033E-1
1.754301891E1,3.942368627E-1,-2.645044625E-1,-3.152062297E-1
1.756247922E1,4.215730429E-1,-1.286786675E0,-2.689332068E-1
1.758193964E1,3.545306325E-1,-1.722638726E0,-1.939495653E-1
1.760139995E1,2.916115820E-1,-1.839771986E0,-2.086103261E-1
1.762086037E1,1.558468789E-1,-1.763872027E0,-3.126100600E-1
1.764032079E1,5.093085021E-2,-1.488219261E0,-2.641990185E-1
1.765978110E1,6.543888897E-2,-1.309694052E0,-9.453132749E-2
1.767924152E1,-3.045924604E-1,-1.560454130E0,-1.779143661E-1
1.769870183E1,-6.633228064E-1,-1.621998668E0,-1.821904182E-1
1.771816224E1,1.854738146E-1,-8.530726433E-1,1.724165827E-1
1.773762266E1,4.360047355E-2,1.864206553E0,-1.553123742E-1
1.775708297E1,-4.227947891E-1,1.655138135E0,1.014035568E-1
1.777654339E1,-3.321577236E-2,6.609556675E-1,4.729620516E-1
1.779600370E1,4.447859228E-1,3.784307241E-1,4.851793647E-1
1.781546412E1,5.510764122E-1,5.661189556E-1,2.822195292E-1
1.783492454E1,3.320813775E-1,9.013310075E-1,2.672533318E-2
1.785438485E1,-2.367100911E-3,1.202792764E0,-1.970038861E-1
1.787384526E1,-2.682459950E-1,1.361159444E0,-2.832885385E-1
1.789330558E1,-3.452149630E-1,1.234710455E0,-2.751945853E-1
1.791276599E1,-4.046215713E-1,1.450192928E0,-2.429714650E-1
1.793222641E1,-3.218493760E-1,1.690568328E0,-1.484401375E-1
1.795168672E1,-1.251509190E-1,1.037401080E0,-8.292489499E-2
1.797114714E1,1.329394430E-1,-6.520981342E-2,-2.550360374E-2
1.799060745E1,3.071886301E-1,-8.457422853E-1,-4.581485875E-3
1.801006787E1,3.592648506E-1,-1.259755850E0,7.024944760E-3
1.802952829E1,3.389535844E-1,-1.394604325E0,-2.932151034E-2
1.804898860E1,2.012035847E-1,-1.197905779E0,-4.016435891E-2
1.806844902E1,-3.031416424E-2,-9.621120095E-1,4.321868345E-2
1.808790933E1,-2.587775886E-1,-7.116574645E-1,8.765909821E-2
1.810736974E1,-6.045270562E-1,-1.036942959E0,5.436696485E-2
1.812683016E1,-1.205694377E-1,-2.247982502E0,3.520108163E-1
1.814629047E1,6.917279959E-1,-9.697478414E-1,6.143772602E-1
1.816575089E1,5.070941448E-1,4.645626545E-1,-1.404988952E-2
1.818521131E1,1.556941569E-1,8.292489648E-1,-5.406153202E-2
1.820467162E1,7.231111825E-2,6.443096399E-1,1.024725661E-1
1.822413204E1,1.335503161E-1,5.517635942E-1,8.368847519E-2
1.824359235E1,1.729510874E-1,6.272054315E-1,5.543597788E-2
1.826305276E1,8.788817376E-2,7.660244107E-1,1.664606482E-2
1.828251318E1,-6.314814836E-2,1.017089844E0,-4.276053514E-3
1.830197349E1,-9.231694043E-2,1.228754520E0,-6.261364091E-3
1.832143391E1,-2.542724647E-2,1.289382815E0,-5.635227636E-2
1.834089422E1,-9.277509153E-2,1.293811560E0,-1.611155868E-1
1.836035464E1,-2.337321341E-1,1.157741427E0,-1.530216336E-1
1.837981506E1,-1.162933856E-1,4.973966479E-1,-1.566868126E-1
1.839927537E1,1.616500914E-1,-5.968148708E-1,-1.669187993E-1
1.841873579E1,4.107302129E-1,-1.419955134E0,-1.351538301E-1
1.843819610E1,5.771908760E-1,-1.778532863E0,-7.819069177E-2
1.845765652E1,5.768854022E-1,-1.858403325E0,-1.094975099E-1
1.847711693E1,4.599048197E-1,-1.726762056E0,-2.141081095E-1
1.849657724E1,2.670242786E-1,-1.453094602E0,-2.150243968E-1
1.851603766E1,-1.595120728E-1,-1.294575214E0,-1.826485693E-1
1.853549797E1,-9.430988431E-1,-1.394909739E0,-3.171915412E-1
1.855495839E1,-1.012584686E0,-2.337932110E0,4.153880477E-2
1.857441881E1,1.567631811E-1,-1.574504018E0,7.179188132E-1
1.859387912E1,-3.061196208E-1,1.550527573E0,-2.840521187E-2
1.861333954E1,-4.994583130E-1,1.849698544E0,8.826996386E-2
1.863279985E1,-1.687514037E-2,8.292489648E-1,4.615083337E-1
1.865226027E1,2.867246568E-1,3.193295598E-1,5.316050649E-1
1.867172068E1,4.114937782E-1,5.551233888E-1,4.182896614E-1
1.869118099E1,2.535852492E-1,9.812015295E-1,1.740964651E-1
1.871064141E1,-2.405280061E-2,1.316413641E0,-8.231402934E-2
1.873010172E1,-2.076176703E-1,1.711948514E0,-2.228129357E-1
1.874956214E1,-1.155297980E-1,2.017991781E0,-1.003345400E-1
1.876902256E1,3.741546767E-3,1.908494234E0,3.863719851E-2
1.878848287E1,-1.269835234E-1,1.734245062E0,4.276053607E-2
1.880794329E1,-1.133917719E-1,1.228907228E0,9.498947114E-2
1.882740360E1,7.101302966E-3,-1.133154184E-1,2.886336111E-2
1.884686402E1,6.421715766E-2,-1.221729517E0,-6.123919412E-2
1.886632443E1,5.230529606E-2,-1.607490659E0,-1.299614757E-1
1.888578474E1,1.332448870E-1,-1.664911985E0,-1.188132018E-1
1.890524516E1,2.454912812E-1,-1.466228127E0,-3.466657549E-2
1.892470547E1,1.585957706E-1,-1.063668251E0,6.734783947E-2
1.894416589E1,-4.054614902E-2,-1.077718139E0,3.481929302E-1
1.896362631E1,-3.652207851E-1,-1.590233684E0,5.287034512E-1
1.898308662E1,-5.819250345E-1,-1.588401198E0,1.182023361E-1
1.900254704E1,2.786307037E-1,-1.813810229E0,2.186895907E-1
1.902200735E1,3.220020831E-1,7.605266571E-1,-2.112064958E-1
1.904146776E1,-1.519526169E-2,1.816864610E0,-2.858847082E-1
1.906092818E1,7.032580674E-2,1.414151907E0,2.611446939E-2
1.908038849E1,2.824485898E-1,7.521272302E-1,1.479819864E-1
1.909984891E1,2.438113987E-1,6.165152788E-1,6.551524997E-2
1.911930933E1,-7.712167688E-3,9.708168507E-1,-3.817904973E-3
1.913876964E1,-3.355938494E-1,1.289077401E0,-5.955931544E-2
1.915823006E1,-5.423715711E-1,1.479514480E0,-9.575305134E-2
1.917769037E1,-4.376082420E-1,1.454316378E0,-5.406153202E-2
1.919715079E1,-7.261654735E-2,1.314733744E0,-2.000582218E-2
1.921661120E1,1.895971596E-1,1.421176910E0,-1.458439678E-1
1.923607152E1,3.082576394E-1,9.527963400E-1,-3.054323792E-1
1.925553193E1,4.327213466E-1,-1.235474050E-1,-4.211912751E-1
1.927499224E1,4.672352076E-1,-9.876156449E-1,-3.333794475E-1
1.929445266E1,3.346775472E-1,-1.329547167E0,-1.734855920E-1
1.931391308E1,1.818086356E-1,-1.417053580E0,-1.061377525E-1
1.933337339E1,1.329394430E-1,-1.483790517E0,-9.865466505E-2
1.935283381E1,9.850194678E-3,-1.435684919E0,-1.528689116E-1
1.937229412E1,-1.187368408E-1,-1.341764450E0,-2.359465212E-1
1.939175454E1,-1.469893306E-1,-1.273194909E0,-1.763872057E-1
1.941121495E1,-3.496437371E-1,-1.612377644E0,-2.597702444E-1
1.943067526E1,-7.963386178E-1,-1.875813007E0,-3.755291104E-1
1.945013568E1,1.663842946E-1,-1.857792497E0,5.696314201E-2
1.946959599E1,-2.909243479E-2,1.160032272E0,1.795942485E-1
1.948905641E1,-6.382773519E-1,1.505170822E0,4.221075773E-1
1.950851683E1,-3.499491513E-1,8.035926223E-1,4.853320718E-1
1.952797714E1,1.929569095E-1,4.219548404E-1,3.371973634E-1
1.954743756E1,4.289034307E-1,6.012436748E-1,2.301433086E-1
1.956689797E1,4.258491099E-1,9.195042253E-1,1.895207912E-1
1.958635829E1,2.711476088E-1,1.209817648E0,8.597921580E-2
1.960581870E1,-9.888373315E-2,1.331227064E0,-6.719512399E-3
1.962527902E1,-4.994583130E-1,1.408654213E0,4.153880477E-2
1.964473943E1,-7.589231133E-1,1.209206820E0,1.713475734E-1
1.966419985E1,-7.263945937E-1,1.392160773E0,2.739728391E-1
1.968366016E1,-3.960694373E-1,1.092837095E0,2.432768941E-1
1.970312058E1,-1.443168055E-2,8.765909821E-2,3.222311661E-2
1.972258089E1,3.468948305E-1,-8.043562174E-1,-1.641699076E-1
1.974204131E1,5.148826241E-1,-1.266780853E0,-2.947422564E-1
1.976150172E1,4.360810816E-1,-1.447596788E0,-3.155116439E-1
1.978096204E1,2.680932879E-1,-1.342375398E0,-2.446513474E-1
1.980042245E1,4.864010960E-2,-1.064431906E0,-1.328630932E-2
1.981988277E1,-2.453385741E-1,-6.119337678E-1,3.037525117E-1
1.983934318E1,-4.287507236E-1,-2.076940238E-1,4.256200492E-1
1.985880360E1,-7.580068111E-1,-1.392008066E0,3.932442069E-1
1.987826391E1,-2.164752036E-1,-3.296073675E0,7.075341344E-1
1.989772433E1,8.701004982E-1,-1.769369841E0,8.903354406E-1
1.991718464E1,5.200750232E-1,8.017600179E-1,-1.339320987E-1
1.993664506E1,8.972076327E-2,1.358563304E0,-1.557705253E-1
1.995610547E1,-3.840812296E-2,1.249523878E0,-1.554650813E-1
1.997556579E1,5.673406646E-2,8.645263910E-1,9.468403645E-3
1.999502620E1,9.216422588E-2,6.510291100E-1,2.092211880E-2
2.001448662E1,-5.093085021E-2,8.017600179E-1,-7.284562290E-2
2.003394693E1,-2.589302957E-1,1.053283572E0,-1.244636998E-1
2.005340735E1,-3.646099269E-1,1.277929068E0,-5.177079141E-2
2.007286766E1,-3.562105298E-1,1.477987289E0,8.552107029E-3
2.009232808E1,-2.821431756E-1,1.528994560E0,7.467821985E-2
2.011178849E1,-2.992473841E-1,1.297018647E0,-6.337722391E-2
2.013124881E1,-2.311359644E-1,5.700895786E-1,-2.238819450E-1
2.015070922E1,-6.696604937E-2,-4.092794061E-1,-2.582430840E-1
2.017016954E1,6.513345987E-2,-1.229365349E0,-2.281579971E-1
2.018962995E1,1.085048541E-1,-1.642004490E0,-2.170097083E-1
2.020909037E1,-1.183550525E-2,-1.714850187E0,-2.985601723E-1
2.022855068E1,-2.404516488E-1,-1.523191333E0,-3.685041666E-1
2.024801110E1,-5.130500793E-1,-1.346651435E0,-4.569268525E-1
2.026747141E1,-1.093829751E0,-1.302669168E0,-6.866120100E-1
2.028693183E1,-6.029998660E-1,-2.544404507E0,-5.345066637E-2
2.030639224E1,1.323973060E0,-1.499214888E0,1.284495950E0
2.032585256E1,5.298488140E-1,1.463326573E0,2.290742937E-3
2.034531297E1,-5.719221383E-2,1.898720503E0,-4.260781780E-2
2.036477329E1,2.143371850E-1,1.295949578E0,3.680460155E-1
2.038423370E1,4.617374241E-1,8.839213252E-1,3.081812859E-1
2.040369412E1,6.336958408E-1,9.941824079E-1,5.986474827E-2
2.042315443E1,7.002801299E-1,1.285564899E0,-1.353065521E-1
2.044261485E1,6.607266068E-1,1.374293089E0,-2.735147178E-1
2.046207527E1,4.350120723E-1,1.294880629E0,-2.981020212E-1
2.048153558E1,8.727730811E-2,1.242346287E0,-1.805105358E-1
2.050099599E1,-2.189186662E-1,1.625816584E0,-1.175914705E-2
2.052045631E1,-3.595702946E-1,1.773035049E0,1.447749585E-1
2.053991672E1,-3.928624094E-1,9.983057380E-1,1.553123742E-1
2.055937714E1,-4.243219495E-1,-3.017672002E-1,-1.771507785E-2
2.057883745E1,-3.922515512E-1,-1.413846493E0,-2.667951882E-1
2.059829787E1,-1.538615674E-1,-1.931554437E0,-3.964512348E-1
2.061775818E1,1.471420527E-1,-1.755625367E0,-5.381718874E-1
2.063721860E1,1.833357960E-1,-1.821293354E0,-1.559232324E-1
2.065667902E1,-1.416442692E-1,-1.901163936E0,5.054906011E-1
2.067613933E1,-2.986365259E-1,-1.182328820E0,4.897608459E-1
2.069559974E1,6.462185979E-1,-1.671326041E0,7.347176075E-1
2.071506016E1,7.329613566E-1,-1.708894223E-1,1.997527778E-1
2.073452047E1,3.960694373E-1,8.669698238E-1,-1.791360974E-1
2.075398089E1,-1.813504845E-1,8.060360551E-1,-2.944368124E-1
2.077344120E1,-6.024653837E-2,5.943714380E-1,1.939495653E-2
2.079290162E1,1.111010313E-1,6.021599770E-1,1.337793916E-1
2.081236204E1,-6.986765563E-2,7.970257998E-1,-1.404988952E-2
2.083182235E1,-4.907535017E-1,1.047327638E0,-6.566796452E-2
2.085128276E1,-7.957277298E-1,1.029459834E0,5.910116807E-2
2.087074318E1,-7.022654414E-1,8.671225309E-1,2.561050653E-1
2.089020349E1,-3.716348708E-1,9.208786488E-1,3.920224607E-1
2.090966391E1,-1.404225379E-1,1.145371437E0,3.272708058E-1
2.092912422E1,8.422297984E-2,8.660535216E-1,-8.399390616E-3
2.094858464E1,3.122282624E-1,-6.368265301E-2,-3.381136656E-1
2.096804506E1,3.392590284E-1,-1.051298261E0,-4.906771481E-1
2.098750537E1,1.544724256E-1,-1.680336237E0,-5.847502947E-1
2.100696579E1,-2.390008420E-2,-1.963014007E0,-6.101012230E-1
2.102642610E1,-1.028543562E-1,-1.924529433E0,-4.960221946E-1
2.104588652E1,-2.505309284E-1,-1.690568328E0,-2.185368687E-1
2.106534693E1,-3.778962195E-1,-1.291520834E0,1.221729536E-2
2.108480724E1,-6.921861768E-1,-1.654069066E0,-1.710421443E-1
2.110426766E1,-7.390699983E-1,-2.708727121E0,-3.848448098E-1
2.112372797E1,7.909935117E-1,-1.947284222E0,2.744309902E-1
2.114318839E1,5.506182313E-1,1.713933825E0,-1.058323234E-1
2.116264881E1,-1.291215420E-1,2.245233536E0,5.986474827E-2
2.118210912E1,5.612320080E-2,1.739437461E0,2.646571696E-1
2.120156954E1,3.780489266E-1,1.173165798E0,1.330158114E-1
2.122102995E1,5.022072196E-1,1.065195441E0,3.665188793E-3
2.124049027E1,3.307069242E-1,1.233335972E0,-6.856957078E-2
2.125995068E1,5.612320080E-2,1.391244531E0,-9.865466505E-2
2.127941099E1,-1.767689884E-1,1.506087065E0,-4.184423760E-2
2.129887141E1,-3.180314898E-1,1.511737585E0,1.375972927E-1
2.131833183E1,-4.088976085E-1,1.745240688E0,2.742782831E-1
2.133779214E1,-3.583485484E-1,1.520595193E0,1.875354946E-1
2.135725256E1,-1.789070219E-1,5.210676789E-1,-8.597921580E-2
2.137671287E1,5.902481079E-2,-5.650499463E-1,-2.751945853E-1
2.139617329E1,1.866955459E-1,-1.184772253E0,-3.350593448E-1
2.141563370E1,1.973856837E-1,-1.425911069E0,-2.548833191E-1
2.143509402E1,2.338848561E-1,-1.408654213E0,-1.768453568E-1
2.145455443E1,2.444222718E-1,-1.185993910E0,-3.497200832E-2
2.147401474E1,1.185841262E-1,-7.469348907E-1,1.379027218E-1
2.149347516E1,-6.055197120E-2,-4.317286909E-1,2.118173689E-1
2.151293558E1,-5.222130418E-1,-1.628565550E0,8.994983882E-2
2.153239589E1,2.615264952E-1,-2.929249287E0,4.885390997E-1
2.155185631E1,8.230639100E-1,-7.560978532E-1,7.707586288E-1
2.157131672E1,6.543888897E-2,1.098029494E0,-1.681405306E-1
2.159077704E1,-3.908770978E-1,1.461799383E0,-3.283398151E-1
2.161023745E1,-3.128391206E-1,1.108108759E0,-1.525634825E-1
2.162969787E1,4.130972922E-2,6.446150541E-1,-4.321868345E-2
2.164915818E1,2.963457704E-1,5.963567495E-1,-5.024362728E-2
2.166861860E1,3.004691005E-1,9.524909258E-1,-4.413498193E-2
2.168807891E1,1.353829056E-1,1.265864491E0,-2.168569900E-2
2.170753933E1,-3.352120519E-2,1.425300241E0,-2.367101051E-2
2.172699974E1,-9.414953738E-2,1.563202977E0,-6.872228812E-3
2.174646006E1,-1.381317973E-1,1.604894519E0,9.728021920E-2
2.176592047E1,-1.685223281E-1,1.152396441E0,2.596175298E-3
2.178538079E1,-5.917752534E-2,2.089157552E-1,-2.047924101E-1
2.180484120E1,8.009964228E-2,-7.761036754E-1,-2.183841616E-1
2.182430162E1,9.842558950E-2,-1.478598237E0,-1.182023361E-1
2.184376193E1,4.986183718E-2,-1.807090759E0,-1.227838174E-1
2.186322235E1,1.565340906E-2,-1.848476768E0,-1.687513888E-1
2.188268266E1,-8.399390499E-4,-1.715155602E0,-1.502727419E-1
2.190214308E1,-4.024071619E-2,-1.582597971E0,-7.009673119E-2
2.192160349E1,-2.767980993E-1,-1.675602078E0,4.123337101E-3
2.194106381E1,-1.184543133E0,-3.040426731E0,-3.747655451E-1
2.196052422E1,7.308233380E-1,-4.194502831E0,3.602575064E-1
2.197998454E1,9.930370450E-1,8.350521326E-1,2.092211843E-1
2.199944495E1,7.017309219E-2,2.370918989E0,-4.531089365E-1
2.201890537E1,-1.257617921E-1,1.770744324E0,-8.032871783E-2
2.203836568E1,3.048978746E-1,8.599448800E-1,2.981020212E-1
2.205782610E1,6.451495886E-1,8.210022449E-1,3.086394370E-1
2.207728652E1,6.703477502E-1,1.100625634E0,1.151480079E-1
2.209674683E1,3.792706728E-1,1.408043265E0,-3.924806044E-2
2.211620724E1,2.481638081E-2,1.667813540E0,-3.329212964E-2
2.213566756E1,-6.574432552E-2,1.741728187E0,6.352993846E-2
2.215512797E1,-9.873101860E-2,1.570838809E0,2.092211880E-2
2.217458839E1,-2.751182318E-1,1.670104265E0,-1.553123742E-1
2.219404870E1,-2.204458266E-1,1.171333194E0,-2.130390853E-1
2.221350912E1,-7.246383280E-2,-1.740964688E-2,-1.783725172E-1
2.223296954E1,-1.229365356E-2,-1.032666922E0,-1.449276656E-1
2.225242985E1,-6.864593178E-2,-1.495396972E0,4.948004708E-2
2.227189026E1,-8.422297984E-2,-1.698356748E0,2.228129357E-1
2.229135058E1,-1.019380614E-1,-1.682474375E0,2.406807244E-1
2.231081099E1,-1.844048053E-1,-1.619097114E0,3.711003438E-2
2.233027141E1,-4.557814896E-1,-2.321133375E0,-1.591302752E-1
2.234973172E1,-6.696604937E-2,-3.058141708E0,1.640172005E-1
2.236919214E1,1.447520494E0,-9.132428169E-1,1.057865024E0
2.238865256E1,7.564796805E-1,6.464476585E-1,2.576322258E-1
2.240811287E1,-2.363283187E-1,7.292198539E-1,-1.777616441E-1
2.242757329E1,-6.895899773E-1,6.160571575E-1,-1.105665267E-1
2.244703360E1,-7.361684442E-1,7.651081085E-1,4.810560122E-2
2.246649402E1,-7.309760451E-1,9.225585461E-1,1.974620372E-1
2.248595443E1,-6.098721027E-1,1.243720651E0,1.620318890E-1
2.250541474E1,-5.157989264E-1,1.717751741E0,7.559451461E-2
2.252487516E1,-4.017199576E-1,1.862679482E0,1.450803876E-2
2.254433558E1,-2.012035847E-1,1.694691658E0,2.382372692E-2
2.256379589E1,2.725984156E-2,1.422856808E0,-4.612028971E-2
2.258325631E1,1.001054645E-1,1.138041139E0,-1.101083755E-1
2.260271662E1,1.277471036E-1,5.143481493E-1,-1.259908676E-1
2.262217704E1,2.673296928E-1,-4.891499579E-1,-1.423314959E-1
2.264163745E1,4.020253718E-1,-1.274722099E0,-6.872228533E-2
2.266109776E1,4.168388546E-1,-1.532048821E0,-1.237001177E-2
2.268055818E1,3.409388959E-1,-1.489593744E0,-5.849030241E-2
2.270001860E1,2.868773639E-1,-1.358105063E0,-1.519526094E-1
2.271947891E1,1.136972085E-1,-1.094364285E0,-2.235765159E-1
2.273893933E1,-1.431714296E-1,-7.698423266E-1,-2.243400961E-1
2.275839964E1,-2.401462197E-1,-6.151408553E-1,-1.069013327E-1
2.277786006E1,-3.126864135E-1,-8.949168921E-1,-3.833176568E-2
2.279732047E1,-1.045724154E0,-1.925140381E0,-8.536835015E-2
2.281678079E1,2.468657345E-1,-3.001178741E0,5.688678026E-1
2.283624120E1,8.398627043E-1,1.722638607E-1,2.835939825E-1
2.285570162E1,1.697440445E-1,9.298889041E-1,-4.581485991E-4
2.287516193E1,3.142135739E-1,3.712530732E-1,3.135263622E-1
2.289462235E1,5.223657489E-1,-3.023780696E-2,2.544251680E-1
2.291408276E1,5.353466272E-1,1.049160287E-1,1.149952933E-1
2.293354308E1,4.281398654E-1,7.422007322E-1,3.985892609E-2
2.295300349E1,1.295796931E-1,1.312290311E0,-4.001164436E-2
2.297246381E1,-1.515708268E-1,1.501963735E0,-1.792888194E-1
2.299192422E1,-1.767689884E-1,1.528230906E0,8.093958721E-3
2.301138464E1,-1.912770271E-1,1.875049472E0,1.817322709E-2
2.303084495E1,-8.132137358E-2,1.928347349E0,-1.065959036E-1
2.305030537E1,2.480874658E-1,1.264948249E0,-2.661843300E-1
2.306976568E1,5.958222151E-1,-2.948949635E-1,-3.052796721E-1
2.308922610E1,8.013782501E-1,-1.561523080E0,-3.193295598E-1
2.310868652E1,7.071523666E-1,-1.848935008E0,-2.521344423E-1
2.312814683E1,5.148826241E-1,-1.735008717E0,-1.684459597E-1
2.314760724E1,3.885863721E-1,-1.203556299E0,-1.406516135E-1
2.316706766E1,2.296088040E-1,-4.793761373E-1,-1.426369250E-1
2.318652797E1,1.834885031E-1,-5.575668216E-1,1.088866442E-1
2.320598839E1,-2.290742996E-4,-1.355356216E0,1.852447391E-1
2.322544870E1,-9.781472385E-2,-2.013715744E0,2.698495090E-1
2.324490912E1,6.294198036E-1,-2.655887365E0,1.278692722E0
2.326436954E1,6.579777002E-1,-1.159115955E-1,1.996000707E-1
2.328382995E1,-1.208748668E-1,1.301905513E0,-7.912226319E-1
2.330329026E1,-3.319286406E-1,1.563050270E0,-6.788234711E-1
2.332275068E1,7.567087561E-2,1.233794093E0,-2.272416949E-1
2.334221099E1,3.285689056E-1,1.063057423E0,-1.298087686E-1
2.336167141E1,2.042579055E-1,1.365740895E0,-1.220202371E-1
2.338113183E1,-2.527453005E-2,1.805258155E0,-9.025526792E-2
2.340059214E1,-2.945131958E-1,1.995695233E0,-7.987056673E-2
2.342005256E1,-5.341249108E-1,1.842979074E0,-5.406153202E-2
2.343951297E1,-5.510764122E-1,1.773340464E0,8.017600328E-2
2.345897329E1,-4.154644012E-1,1.633299708E0,1.533270627E-1
2.347843370E1,-2.474765927E-1,8.674280047E-1,-1.695149764E-2
2.349789402E1,-7.704532146E-2,-2.312123179E-1,-1.947131455E-1
2.351735443E1,-1.962403022E-2,-1.133764982E0,-2.193004489E-1
2.353681485E1,-1.107956022E-1,-1.480888963E0,-1.803578287E-1
2.355627516E1,-2.454912812E-1,-1.585957646E0,-1.101083755E-1
2.357573558E1,-4.608211219E-1,-1.510668635E0,-8.231402934E-2
2.359519599E1,-6.735547781E-1,-1.449123979E0,-1.895207912E-1
2.361465631E1,-5.274053812E-1,-1.703854561E0,-3.486510813E-1
2.363411672E1,-4.925860763E-1,-2.769202709E0,-9.560033679E-2
2.365357714E1,4.747183025E-1,-3.412901640E0,9.972367287E-1
2.367303745E1,6.092612743E-1,1.154992580E0,-2.112064958E-1
2.369249787E1,-1.075885594E-1,1.924529433E0,-1.753181964E-1
2.371195829E1,-5.136609077E-1,1.213482857E0,1.343902498E-1
2.373141860E1,-5.084685683E-1,5.450441241E-1,2.079994529E-1
2.375087902E1,-1.537088454E-1,5.386300087E-1,2.576322258E-1
2.377033933E1,5.841394514E-2,1.060308576E0,2.779434621E-1
2.378979974E1,1.068249792E-1,1.452025533E0,2.802342176E-1
2.380926016E1,1.109483168E-1,1.802814722E0,1.249218509E-1
2.382872047E1,8.727730811E-2,1.966831923E0,-8.323032409E-2
2.384818089E1,1.146135032E-1,1.913533926E0,-1.727220118E-1
2.386764131E1,1.390480995E-1,1.743102670E0,-2.600756884E-1
2.388710162E1,2.062432170E-1,8.151990771E-1,-2.049451321E-1
2.390656204E1,2.842811942E-1,-5.580250025E-1,-1.058323234E-1
2.392602245E1,2.952767611E-1,-1.156672478E0,-4.077522457E-2
2.394548276E1,2.199876755E-1,-1.433088779E0,1.023198478E-2
2.396494318E1,1.601229310E-1,-1.563202977E0,6.398808211E-2
2.398440349E1,4.207331315E-2,-1.474780321E0,5.314523727E-2
2.400386391E1,-6.314814836E-2,-1.789986491E0,-7.666353136E-2
2.402332433E1,-2.459494323E-1,-2.676962137E0,-1.507308781E-1
2.404278474E1,-2.939023077E-1,-3.190852165E0,2.220493406E-1
2.406224506E1,7.690023780E-1,-1.662468553E0,9.882264733E-1
2.408170547E1,8.830813766E-1,8.032871783E-2,2.677114904E-1
2.410116589E1,3.798815310E-1,9.673043489E-1,-3.266599476E-1
2.412062620E1,8.055779338E-2,1.180954337E0,-1.737910360E-1
2.414008662E1,-1.712712198E-1,6.884446144E-1,1.174387559E-1
2.415954693E1,-3.742310405E-1,4.178315103E-1,2.690859437E-1
2.417900735E1,-4.747183025E-1,9.717331529E-1,2.884808779E-1
2.419846776E1,-4.621955752E-1,1.259297729E0,2.131918073E-1
2.421792808E1,-1.361464858E-1,1.164919138E0,1.962403059E-1
2.423738849E1,4.267654121E-1,1.277776361E0,2.290742937E-3
2.425684891E1,8.562033176E-1,1.600465775E0,-2.307541668E-1
2.427630922E1,8.849139810E-1,1.469129801E0,-4.025598764E-1
2.429576964E1,7.998510599E-1,5.167915821E-1,-3.950767815E-1
2.431523006E1,6.017781496E-1,-7.762564421E-1,-2.012799382E-1
2.433469037E1,2.838230431E-1,-1.401171088E0,-6.612611562E-2
2.435415079E1,-4.711294547E-2,-1.536477685E0,-1.441640854E-1
2.437361120E1,-2.748127878E-1,-1.314275622E0,-1.744018942E-1
2.439307152E1,-3.224602342E-1,-9.950987101E-1,-9.392046183E-2
2.441253193E1,-2.051742077E-1,-6.740893126E-1,-6.856957078E-2
2.443199235E1,-1.211803034E-1,-5.629118681E-1,3.817904741E-2
2.445145266E1,-1.529452652E-1,-8.191696405E-1,4.566214234E-2
2.447091308E1,-9.113339186E-1,-1.683237910E0,-3.035998046E-1
2.449037349E1,-1.172478557E0,-2.083659649E0,-8.758273721E-1
2.450983381E1,3.823249936E-1,-1.403461814E0,-1.256854236E-1
2.452929422E1,1.085048541E-1,2.478889227E0,1.542433500E-1
2.454875464E1,-1.992182732E-1,2.410472393E0,3.268126547E-1
2.456821495E1,2.238055766E-1,1.197447658E0,4.170679152E-1
2.458767537E1,5.251146555E-1,5.847502947E-1,3.452913165E-1
2.460713579E1,4.909062088E-1,6.247619390E-1,1.482874304E-1
2.462659610E1,2.722166181E-1,9.170607328E-1,9.773836471E-3
2.464605652E1,-9.109520912E-2,1.393993378E0,-1.275180280E-1
2.466551693E1,-3.924042583E-1,1.685223222E0,-1.701258421E-1
2.468497724E1,-6.243801713E-1,1.508072376E0,-1.223256737E-1
2.470443766E1,-6.730966568E-1,1.595426083E0,7.788525894E-3
2.472389808E1,-2.873355150E-1,1.532965183E0,5.665770918E-2
2.474335839E1,2.250273079E-1,9.734130502E-1,-2.748891478E-3
2.476281881E1,6.127737164E-1,-2.565632015E-2,-2.443459071E-2
2.478227912E1,8.064178824E-1,-9.304997921E-1,-1.191186346E-2
2.480173954E1,7.094430923E-1,-1.314886451E0,1.786779426E-2
2.482119995E1,5.723039508E-1,-1.496771455E0,9.483675659E-2
2.484066026E1,3.772853613E-1,-1.513722897E0,1.878409237E-1
2.486012068E1,2.222020552E-2,-1.263268352E0,1.375972927E-1
2.487958110E1,-4.522690177E-1,-1.764941096E0,2.855792828E-2
2.489904152E1,-8.033635616E-1,-2.372598886E0,-2.600756884E-1
2.491850183E1,1.931096315E-1,-1.587179422E0,9.598212838E-1
2.493796224E1,4.234056473E-1,2.828303874E-1,7.180715203E-1
2.495742266E1,3.733910993E-2,1.094822407E0,3.512472380E-3
2.497688297E1,-5.862011313E-1,8.491020203E-1,-2.379318327E-1
2.499634339E1,-5.787180066E-1,5.002982616E-1,-9.468403645E-3
2.501580381E1,-2.754236460E-1,3.660607338E-1,1.728747338E-1
2.503526412E1,-2.673296928E-1,7.463240623E-1,2.493855506E-1
2.505472454E1,-3.539197743E-1,1.090851784E0,1.681405306E-1
2.507418495E1,-3.255145550E-1,1.164002895E0,9.162971377E-2
2.509364527E1,-1.637881249E-1,9.790635109E-1,-4.108065739E-2
2.511310568E1,1.275180187E-2,7.918334603E-1,-1.189659163E-1
2.513256610E1,1.679114550E-1,7.851139307E-1,-1.288924664E-1
2.515202641E1,3.067304790E-1,4.323395491E-1,-2.353356630E-1
2.517148683E1,4.434114695E-1,-4.250091612E-1,-2.270889878E-1
2.519094724E1,4.093557596E-1,-1.119104266E0,-1.652389169E-1
2.521040756E1,1.981492639E-1,-1.466380954E0,-1.165224537E-1
2.522986797E1,-4.390590638E-2,-1.639102936E0,-1.267544478E-1
2.524932829E1,-2.413679510E-1,-1.669035316E0,-1.437059343E-1
2.526878870E1,-5.274053812E-1,-1.570838809E0,-2.524398565E-1
2.528824912E1,-6.766090989E-1,-1.471878648E0,-2.871064544E-1
2.530770943E1,-1.328401804E0,-2.100611210E0,-4.844157696E-1
2.532716985E1,1.292742640E-1,-3.760025501E0,-8.429934084E-2
2.534663026E1,1.091386318E0,3.489564955E-1,5.568032265E-1
2.536609068E1,2.520580888E-1,2.458119869E0,-6.261363626E-2
2.538555099E1,-2.378554791E-1,2.106872559E0,3.072649837E-1
2.540501141E1,-1.398116797E-1,1.610850453E0,5.290089250E-1
2.542447183E1,-4.161516204E-2,1.435684919E0,3.720166385E-1
2.544393214E1,-3.741546767E-3,1.596342444E0,2.257145345E-1
2.546339256E1,2.008217946E-2,1.693164468E0,4.810560122E-2
2.548285297E1,3.130682046E-3,1.683237910E0,-8.597921580E-2
2.550231329E1,1.565340906E-2,1.434157729E0,-1.408043355E-1
2.552177370E1,-4.558578506E-2,1.339321017E0,-1.904370934E-1
2.554123412E1,-2.667188346E-1,1.314733744E0,-2.605338395E-1
2.556069443E1,-3.145190179E-1,8.536835313E-1,-1.858556122E-1
2.558015485E1,-1.744782478E-1,3.604102135E-2,-1.053741723E-1
2.559961526E1,-5.245801434E-2,-5.398517251E-1,-8.964440972E-2
2.561907558E1,-2.283107117E-2,-9.784526825E-1,-4.169152305E-2
2.563853599E1,1.397353224E-2,-1.035568476E0,-3.207040206E-2
2.565799641E1,1.853211075E-1,-1.093753338E0,-3.772090003E-2
2.567745672E1,4.205040336E-1,-2.189797401E0,2.235765159E-1
2.569691714E1,3.713294268E-1,-2.193615437E0,1.334739476E-1
2.571637756E1,1.660788655E-1,-2.842200994E0,6.948586553E-2
2.573583797E1,7.329613566E-1,-1.782197952E0,8.898772597E-1
2.575529829E1,6.285035014E-1,8.135191798E-1,3.547597229E-1
2.577475870E1,-1.338557452E-1,1.556788921E0,-3.695732057E-1
2.579421912E1,-4.295142889E-1,9.561560750E-1,-2.084576041E-1
2.581367943E1,-1.717293561E-1,7.632755637E-1,5.940660089E-2
2.583313985E1,-5.917752534E-2,1.039691806E0,1.143844277E-1
2.585260027E1,-2.459494323E-1,1.531437993E0,2.145662606E-1
2.587206058E1,-4.629591405E-1,1.788306594E0,2.367101014E-1
2.589152099E1,-4.701367915E-1,1.707519770E0,1.611155868E-1
2.591098141E1,-2.370918989E-1,1.545029759E0,9.178243577E-2
2.593044172E1,3.153589368E-2,1.507614255E0,3.481929377E-2
2.594990214E1,2.352592945E-1,1.408806920E0,-1.024725661E-1
2.596936256E1,3.241401315E-1,7.583886385E-1,-3.459021747E-1
2.598882287E1,3.464366794E-1,-3.477347791E-1,-3.845393658E-1
2.600828329E1,3.155880272E-1,-1.165529966E0,-2.486219704E-1
2.602774370E1,2.141844630E-1,-1.497382283E0,-1.348484010E-1
2.604720402E1,1.300378442E-1,-1.547931314E0,-1.403461844E-1
2.606666443E1,2.294560820E-1,-1.442404509E0,-1.829539984E-1
2.608612485E1,4.557814896E-1,-1.195309639E0,-1.617264450E-1
2.610558516E1,5.145772099E-1,-9.654718041E-1,-7.803797722E-2
2.612504558E1,4.150062501E-1,-8.732311726E-1,-2.794706449E-2
2.614450599E1,-2.270126194E-1,-1.342986226E0,-1.406516135E-1
2.616396631E1,-1.870086193E0,-1.855654478E0,-1.420260668E0
2.618342672E1,-2.672533505E-3,-2.732856274E0,-9.578359723E-1
2.620288714E1,4.516581595E-1,1.460883141E0,-1.733328849E-1
2.622234756E1,-5.096902847E-1,2.361603260E0,-1.905898154E-1
2.624180787E1,-4.999164641E-1,1.856876254E0,1.496618688E-1
2.626126829E1,2.428951114E-1,9.841031432E-1,3.219257295E-1
2.628072870E1,4.861720204E-1,7.916807532E-1,3.949240744E-1
2.630018902E1,2.960403562E-1,7.518218160E-1,4.564687014E-1
2.631964943E1,3.000873141E-2,7.777835727E-1,4.178315103E-1
2.633910985E1,-1.857792437E-1,9.821178317E-1,3.604102135E-1
2.635857016E1,-4.308887422E-1,1.125823736E0,2.067777216E-1
2.637803058E1,-8.223003745E-1,1.379027247E0,5.971203372E-2
2.639749099E1,-8.377246857E-1,1.643226266E0,-7.192932814E-2
2.641695131E1,-3.979020417E-1,1.056032538E0,-2.182314396E-1
2.643641172E1,1.329394430E-1,-1.020144150E-1,-2.965748608E-1
2.645587214E1,4.339430630E-1,-9.187406301E-1,-2.475529462E-1
2.647533245E1,4.612792730E-1,-1.345582366E0,-1.365282834E-1
2.649479287E1,3.934732676E-1,-1.596495152E0,-1.527161920E-3
2.651425329E1,3.236819804E-1,-1.681099892E0,1.246164143E-1
2.653371370E1,2.209039778E-1,-1.577558279E0,2.318231910E-1
2.655317402E1,1.256090701E-1,-1.660483241E0,4.276053607E-2
2.657263443E1,-2.615264952E-1,-2.417039156E0,-1.145371497E-1
2.659209485E1,7.099012136E-1,-2.444986343E0,4.685332775E-1
2.661155527E1,1.036103010E0,-7.686206102E-1,9.682206511E-1
2.663101558E1,1.714239269E-1,9.906699657E-1,1.330158114E-1
2.665047599E1,-4.279871285E-1,8.590285778E-1,-3.126100600E-1
2.666993641E1,-4.982365966E-1,8.993456960E-1,-2.790125012E-1
2.668939672E1,-2.167806327E-1,8.014546037E-1,-4.046979174E-2
2.670885714E1,-4.925097153E-2,7.542653084E-1,1.104138121E-1
2.672831756E1,-7.093667239E-2,7.892373204E-1,2.081521749E-1
2.674777787E1,-1.048396677E-1,6.995928884E-1,2.353356630E-1
2.676723829E1,-1.028543562E-1,4.544833899E-1,2.779434621E-1
2.678669870E1,3.123046272E-2,9.552397728E-1,2.784016132E-1
2.680615902E1,1.900553107E-1,1.454010844E0,2.831358314E-1
2.682561943E1,1.711184978E-1,1.249523878E0,7.559451461E-2
2.684507985E1,9.964732081E-2,2.996291816E-1,-2.357937992E-1
2.686454016E1,1.886045001E-2,-5.558869243E-1,-3.625482321E-1
2.688400058E1,-1.153770834E-1,-1.096502304E0,-3.738492429E-1
2.690346099E1,-2.062432170E-1,-1.423773050E0,-2.910770774E-1
2.692292141E1,-1.663842946E-1,-1.645822406E0,-1.566868126E-1
2.694238172E1,-1.008690447E-1,-1.671478748E0,-6.429351866E-2
2.696184214E1,-8.910989761E-2,-1.523954868E0,-4.214967042E-2
2.698130256E1,5.574141163E-3,-1.692095399E0,-1.130099818E-1
2.700076287E1,-2.619082667E-2,-2.988197803E0,-6.872228812E-3
2.702022329E1,1.425223947E0,-2.848156929E0,8.585704565E-1
2.703968370E1,1.080085278E0,-3.759872615E-1,-1.821904182E-1
2.705914402E1,3.638463318E-1,2.603963852E0,-5.503891706E-1
2.707860443E1,-1.359937787E-1,2.309832335E0,-7.727439702E-2
2.709806485E1,-3.053560257E-1,1.521511436E0,3.226893246E-1
2.711752526E1,-4.556287527E-1,1.150411129E0,3.642281294E-1
2.713698558E1,-6.624065042E-1,1.193477035E0,2.304487377E-1
2.715644599E1,-6.993638277E-1,1.248913050E0,1.229365394E-1
2.717590641E1,-5.101484656E-1,1.430034399E0,4.230238497E-2
2.719536672E1,-2.077703774E-1,1.665370107E0,-1.339320987E-1
2.721482714E1,3.130682046E-3,1.673769474E0,-4.016436040E-1
2.723428756E1,2.145662531E-2,1.461799383E0,-5.847502947E-1
2.725374797E1,9.155336022E-2,9.221003652E-1,-4.584540129E-1
2.727320829E1,2.183077931E-1,-1.017089859E-1,-2.156352699E-1
2.729266870E1,2.926805913E-1,-7.057015300E-1,-4.810560122E-2
2.731212912E1,2.804632783E-1,-9.570723772E-1,7.651081681E-2
2.733158943E1,2.457967103E-1,-1.055879712E0,1.046105921E-1
2.735104985E1,1.747836918E-1,-7.852666974E-1,1.256854236E-1
2.737051026E1,1.758527011E-1,-9.431751966E-1,-1.475238502E-1
2.738997058E1,-1.657734364E-1,-2.546848059E0,-2.273944169E-1
2.740943099E1,4.556287527E-1,-3.373653412E0,-1.267544460E-2
2.742889141E1,5.055669546E-1,-4.524980783E-1,5.916225314E-1
2.744835183E1,-4.406625926E-1,7.539598346E-1,4.778489769E-1
2.746781214E1,-5.477166176E-1,1.406974316E0,-2.015853859E-2
2.748727256E1,-2.659552395E-1,7.241802216E-1,1.226311028E-1
2.750673297E1,-1.072831303E-1,4.497492015E-1,1.870773435E-1
2.752619339E1,-2.541961074E-1,5.161807537E-1,1.641699076E-1
2.754565370E1,-4.880045950E-1,9.943351150E-1,2.495382577E-1
2.756511412E1,-6.234638691E-1,1.319467902E0,3.080285788E-1
2.758457454E1,-4.930442274E-1,1.299920201E0,3.332267404E-1
2.760403485E1,-2.777144015E-1,1.021213174E0,3.017672002E-1
2.762349527E1,-2.435823344E-2,7.110465765E-1,2.903134823E-1
2.764295568E1,1.734092385E-1,6.592758298E-1,2.098320574E-1
2.766241599E1,2.696204484E-1,3.816377819E-1,-3.298669681E-2
2.768187641E1,3.274998665E-1,-3.758345544E-1,-1.947131455E-1
2.770133683E1,3.084103465E-1,-8.463531733E-1,-2.693913579E-1
2.772079714E1,2.144898921E-1,-1.112842917E0,-2.893971801E-1
2.774025756E1,1.424078494E-1,-1.337946534E0,-2.686277926E-1
2.775971797E1,6.772962958E-2,-1.557705164E0,-1.928805560E-1
2.777917839E1,1.298851222E-1,-1.698509574E0,-1.534797698E-1
2.779863870E1,2.691622972E-1,-1.496160507E0,2.199113183E-2
2.781809912E1,-7.536543906E-2,-1.415831804E0,1.052214578E-1
2.783755954E1,-9.603558183E-1,-2.355952740E0,4.260781780E-2
2.785701985E1,6.297252178E-1,-1.722944140E0,1.049160287E-1
2.787648026E1,-2.190713882E-1,1.802356482E0,-3.164279461E-1
2.789594068E1,-1.109559536E0,2.147189617E0,-3.637699783E-1
2.791540110E1,-3.992764950E-1,1.393229842E0,2.168570012E-1
2.793486141E1,3.872119188E-1,8.535308242E-1,5.913171172E-1
2.795432183E1,4.860192835E-1,7.788525820E-1,4.886918366E-1
2.797378224E1,2.120464295E-1,8.147408962E-1,2.664897740E-1
2.799324256E1,-2.985601686E-2,9.975422025E-1,9.834922850E-2
2.801270297E1,-2.407570779E-1,1.052214622E0,-7.483093534E-3
2.803216339E1,-4.256964028E-1,1.180190802E0,2.703076601E-2
2.805162381E1,-5.576431751E-1,1.747073293E0,1.954767294E-2
2.807108412E1,-4.860192835E-1,2.034790516E0,-4.566214234E-2
2.809054454E1,-1.863901168E-1,1.256090760E0,-2.050978541E-1
2.811000495E1,2.890154123E-1,-1.919642538E-1,-4.095848203E-1
2.812946526E1,5.139663815E-1,-1.050992846E0,-4.619664848E-1
2.814892568E1,4.957931340E-1,-1.421176910E0,-3.909534514E-1
2.816838610E1,4.220311940E-1,-1.545640588E0,-2.684750557E-1
2.818784652E1,3.122282624E-1,-1.450040221E0,-1.685986817E-1
2.820730683E1,1.563050300E-1,-1.157741427E0,-7.177661173E-3
2.822676724E1,3.520108387E-2,-8.420770764E-1,9.101885557E-2
2.824622766E1,-1.792124510E-1,-1.137124777E0,-7.101303339E-2
2.826568797E1,-1.495855153E-1,-2.092059135E0,-1.221729591E-1
2.828514839E1,1.153083682E0,-2.382220030E0,8.344413042E-1
2.830460881E1,8.053488731E-1,4.292852283E-1,1.198822111E-1
2.832406922E1,-1.295796931E-1,1.589470148E0,-3.536907136E-1
2.834352954E1,-6.486620307E-1,1.538157463E0,-1.409570426E-1
2.836298995E1,-5.171734095E-1,9.448550940E-1,1.174387559E-1
2.838245037E1,-2.729802132E-1,5.012145638E-1,1.293506175E-1
2.840191079E1,-2.548069656E-1,6.249146461E-1,2.420551628E-1
2.842137110E1,-2.722166181E-1,8.741474748E-1,3.115410507E-1
2.844083152E1,-2.121991515E-1,8.287907839E-1,3.110828996E-1
2.846029193E1,-5.917752534E-2,7.438805699E-1,2.712239623E-1
2.847975224E1,9.048434347E-2,1.090240955E0,1.766926348E-1
2.849921266E1,1.792124510E-1,1.252272844E0,5.497782957E-3
2.851867308E1,2.065486610E-1,7.111993432E-1,-2.435823381E-1
2.853813349E1,2.039524764E-1,-3.339903057E-1,-3.413206935E-1
2.855759381E1,1.647044122E-1,-1.078481793E0,-2.565632164E-1
2.857705422E1,8.636100590E-2,-1.449582100E0,-1.710421443E-1
2.859651464E1,4.589121789E-2,-1.532507062E0,-1.543960720E-1
2.861597495E1,1.375209391E-1,-1.479361773E0,-1.166751757E-1
2.863543537E1,1.352301836E-1,-1.294727921E0,-8.353576064E-2
2.865489579E1,4.253146052E-2,-1.197753072E0,-3.787361458E-2
2.867435620E1,-1.001054645E-1,-1.462715745E0,1.427896470E-1
2.869381652E1,-1.304119945E0,-2.505309105E0,-2.420551628E-1
2.871327693E1,4.199695308E-3,-3.903731346E0,-3.985892832E-1
2.873273735E1,9.333250523E-1,2.026543915E-1,1.493564397E-1
2.875219777E1,4.207331315E-2,2.905883789E0,-3.426951468E-1
2.877165808E1,-9.689842910E-2,2.561814070E0,1.922696829E-1
2.879111849E1,3.534616232E-1,1.636048555E0,4.198168218E-1
2.881057891E1,5.941423774E-1,1.298393130E0,2.561050653E-1
2.883003922E1,4.967094362E-1,1.301294684E0,1.838703007E-1
2.884949964E1,2.642753720E-1,1.230129004E0,1.165224537E-1
2.886896006E1,4.046979360E-3,1.149494767E0,2.000582218E-2
2.888842047E1,-2.340375632E-1,1.202029228E0,-5.971203372E-2
2.890788079E1,-3.151298761E-1,1.535103202E0,-1.437059343E-1
2.892734120E1,-3.392590284E-1,1.721722364E0,-3.350593448E-1
2.894680162E1,-2.271653414E-1,1.221729517E0,-3.856084049E-1
2.896626193E1,6.055197120E-2,-2.551887631E-1,-2.866483033E-1
2.898572235E1,2.561814189E-1,-1.202334642E0,-2.247982323E-1
2.900518276E1,2.228892893E-1,-1.465159178E0,-1.069013327E-1
2.902464308E1,3.168861195E-2,-1.193782449E0,-1.162170246E-1
2.904410349E1,-1.895971596E-1,-1.018311620E0,-9.621120058E-3
2.906356391E1,-2.030361742E-1,-1.508836031E0,4.741837978E-1
2.908302433E1,-8.101594448E-2,-1.258686900E0,1.918115467E-1
2.910248464E1,-2.683987021E-1,-1.623067737E0,-2.516762912E-1
2.912194506E1,-1.508072466E-1,-2.734688997E0,3.292561173E-1
2.914140547E1,7.241038084E-1,-1.442404509E0,1.453705430E0
2.916086589E1,7.361684442E-1,5.261073112E-1,1.710421443E-1
2.918032631E1,6.116283685E-2,1.129336238E0,-4.805978537E-1
2.919978662E1,1.931859925E-2,8.559742570E-1,-1.502727419E-1
2.921924704E1,1.766162813E-1,5.230529904E-1,3.084867075E-2
2.923870745E1,3.260490671E-2,7.612902522E-1,3.649916872E-2
2.925816777E1,-4.099666178E-1,1.348178625E0,1.069013402E-2
2.927762818E1,-5.901717544E-1,1.501658320E0,-1.466075517E-2
2.929708860E1,-3.288743198E-1,1.254563570E0,6.123919412E-2
2.931654891E1,1.101847365E-1,1.234710455E0,4.963276163E-2
2.933600933E1,2.738964856E-1,1.514791965E0,-1.038470119E-1
2.935546974E1,2.763399482E-1,1.401934624E0,-3.136790693E-1
2.937493016E1,3.019962609E-1,4.396699369E-1,-4.279107749E-1
2.939439047E1,1.721875072E-1,-6.042979956E-1,-3.643808365E-1
2.941385089E1,-7.200568914E-2,-1.320536971E0,-2.141081095E-1
2.943331131E1,-1.863901168E-1,-1.585194111E0,-2.538143098E-1
2.945277162E1,-1.315650046E-1,-1.531743407E0,-2.194531709E-1
2.947223204E1,-8.559742570E-2,-9.633337855E-1,6.291907281E-2
2.949169245E1,-1.153007243E-2,-4.332558513E-1,2.142608166E-1
2.951115277E1,9.476039559E-2,-3.220784664E-1,3.623955250E-1
2.953061318E1,-3.627009690E-2,-5.920807123E-1,4.439459741E-1
2.955007360E1,-4.311941862E-1,-1.252272844E0,2.826776803E-1
2.956953402E1,-1.116126299E0,-1.109177709E0,-2.131918073E-1
2.958899433E1,-6.238456443E-2,-4.174344540E0,-1.478292793E-1
2.960845474E1,1.199967504E0,4.156934917E-1,-1.374445739E-3
2.962791516E1,1.779907197E-1,3.704589367E0,-5.422952175E-1
2.964737558E1,2.488510460E-1,3.015228510E0,-2.561050653E-1
2.966683589E1,6.011673212E-1,1.471115112E0,-6.566796452E-2
2.968629631E1,6.465240121E-1,7.394518256E-1,3.191768378E-2
2.970575672E1,5.935314894E-1,5.766563416E-1,1.426369250E-1
2.972521704E1,3.617083132E-1,6.614138484E-1,1.404989064E-1
2.974467745E1,5.154171586E-2,1.085201263E0,5.283980444E-2
2.976413787E1,-3.276526034E-1,1.467755318E0,-5.574141070E-2
2.978359829E1,-4.032471180E-1,1.564119220E0,-7.803797722E-2
2.980305860E1,-4.336376488E-1,1.242346287E0,-1.682932526E-1
2.982251902E1,-4.026362598E-1,8.051197529E-1,-2.903134823E-1
2.984197943E1,-1.069776937E-1,-6.643154621E-1,-2.701549530E-1
2.986143985E1,2.054796368E-1,-1.487913847E0,-2.306014597E-1
2.988090016E1,3.632354736E-1,-1.607337952E0,-1.715002805E-1
2.990036058E1,4.296670258E-1,-1.220813274E0,-6.246092543E-2
2.991982099E1,4.327213466E-1,-7.061597109E-1,-2.397644334E-2
2.993928131E1,3.392590284E-1,-2.974911332E-1,-4.688387364E-2
2.995874172E1,2.213621289E-1,-2.438877672E-1,-5.925388262E-2
2.997820214E1,1.051450968E-1,-3.530798554E-1,-2.199113183E-2
2.999766256E1,-4.283689335E-2,-4.799869955E-1,-3.390299529E-2
3.001712287E1,-1.702021956E-1,-1.063210130E0,-8.277218044E-2
3.003658329E1,4.499782622E-1,-2.331365347E0,4.007273018E-1
3.005604370E1,1.715995550E0,-2.259436131E0,9.958623052E-1
3.007550412E1,5.602393746E-1,2.567159235E-1,-5.140427351E-1
3.009496443E1,-7.068468928E-1,1.958890676E0,-9.654718041E-1
3.011442485E1,-8.442915082E-1,1.987601280E0,-5.900954008E-1
3.013388527E1,-6.830231547E-1,6.041452885E-1,-4.123337194E-2
3.015334568E1,-6.190351248E-1,-4.376846254E-1,2.096793354E-1
3.017280599E1,-5.891027451E-1,-4.931205809E-1,3.744601011E-1
3.019226641E1,-4.104247689E-1,-2.680169344E-1,5.114465356E-1
3.021172683E1,-1.756236190E-3,8.155044913E-2,5.642863512E-1
3.023118724E1,4.211149216E-1,8.567378670E-2,4.583013058E-1
3.025064756E1,4.476875365E-1,-1.685986817E-1,1.809686869E-1
3.027010797E1,1.776852906E-1,-3.822486401E-1,-1.137735620E-1
3.028956839E1,-1.405752599E-1,-6.380482912E-1,-2.744309902E-1
3.030902870E1,-4.154644012E-1,-9.879210591E-1,-3.665188551E-1
3.032848912E1,-4.426479042E-1,-1.446375132E0,-4.523453712E-1
3.034794954E1,-2.293033600E-1,-1.871995091E0,-3.181078434E-1
3.036740995E1,-1.311068535E-1,-2.140317440E0,4.796815813E-1
3.038687027E1,5.628355145E-1,-1.340848207E0,1.034041405E0
3.040633068E1,3.165042996E-1,8.794925809E-1,2.973384261E-1
3.042579110E1,-2.769508064E-1,1.931859851E0,-1.715002805E-1
3.044525152E1,-5.800924897E-1,2.170860767E0,-2.674060464E-1
3.046471183E1,-8.331431746E-1,1.779296398E0,-2.684750557E-1
3.048417224E1,-8.920916319E-1,1.122464061E0,-2.154825479E-1
3.050363266E1,-7.357102633E-1,3.921751976E-1,-1.258381456E-1
3.052309308E1,-4.944186807E-1,-2.257145345E-1,-3.436114267E-2
3.054255339E1,-2.793942690E-1,-7.411317229E-1,6.750056148E-2
3.056201381E1,-1.816559136E-1,-1.014646411E0,2.354883701E-1
3.058147422E1,-1.633299738E-1,-9.489784241E-1,4.089739621E-1
3.060093454E1,-2.351065874E-1,-6.536253095E-1,5.050324798E-1
3.062039495E1,-3.589594066E-1,-2.939786613E-1,2.866483033E-1
3.063985537E1,-3.901135325E-1,1.070540547E-1,-8.796452731E-2
3.065931579E1,-3.519344628E-1,5.273290277E-1,-3.187187016E-1
3.067877620E1,-2.914588451E-1,8.164207935E-1,-3.671297431E-1
3.069823652E1,-2.242637277E-1,8.277217746E-1,-3.042106628E-1
3.071769693E1,-1.146135032E-1,5.997164845E-1,-2.182314396E-1
3.073715735E1,-1.298087649E-3,2.307541668E-1,-2.067777216E-1
3.075661776E1,8.468113095E-2,-1.065959036E-1,-2.440404743E-1
3.077607808E1,1.445458829E-1,-3.426951468E-1,-2.938259542E-1
3.079553849E1,2.048687786E-1,-4.717403352E-1,-2.768744528E-1
3.081499891E1,2.213621289E-1,-2.838993967E-1,-7.345648855E-2
3.083445933E1,8.132137358E-2,-2.451094985E-1,7.620538026E-2
3.085391974E1,6.116283685E-2,-2.522871494E-1,8.628465235E-2
3.087338006E1,1.463784724E-1,-1.330158114E-1,9.468403645E-3
3.089284047E1,1.776852906E-1,2.061668634E-1,-6.032289565E-2
3.091230089E1,7.964149863E-2,5.679515004E-1,-1.392771751E-1
3.093176131E1,-8.132137358E-2,7.264709473E-1,-1.850920320E-1
3.095122162E1,-1.963166744E-1,7.301361561E-1,-1.065959036E-1
3.097068204E1,-1.715766490E-1,5.879573226E-1,5.421425030E-2
3.099014245E1,-2.977965865E-3,3.263545036E-1,1.710421443E-1
3.100960287E1,1.937204897E-1,-5.818486959E-2,1.397353113E-1
3.102906318E1,4.107302129E-1,-3.509418070E-1,-6.811141968E-2
3.104852360E1,4.658607543E-1,-1.369864196E-1,-2.475529462E-1
3.106798402E1,2.519053519E-1,4.488328993E-1,-2.779434621E-1
3.108744443E1,-7.368556410E-2,8.836159110E-1,-2.040288299E-1
3.110690474E1,-3.018435538E-1,9.946405888E-1,-8.735366166E-2
3.112636516E1,-3.242928386E-1,8.196278214E-1,-1.740964688E-2
3.114582558E1,-1.005636156E-1,4.984656572E-1,1.435532235E-2
3.116528599E1,2.899316847E-1,1.565341055E-1,-1.710421406E-2
3.118474641E1,6.981421113E-1,-1.327103674E-1,-7.834340632E-2
3.120420672E1,9.304234385E-1,-2.405280024E-1,-1.682932526E-1
3.122366714E1,8.946878314E-1,-1.330158114E-1,-2.438877672E-1
3.124312756E1,6.424006820E-1,9.804379940E-2,-2.252563834E-1
3.126258797E1,3.349829614E-1,3.167333901E-1,-1.226311028E-1
3.128204829E1,1.066722646E-1,3.970620930E-1,-1.496618707E-2
3.130150870E1,2.344193682E-2,3.379609287E-1,6.169734150E-2
3.132096912E1,9.506583214E-2,2.377791107E-1,1.284343153E-1
3.134042954E1,2.416733801E-1,1.748600453E-1,1.941022873E-1
3.135988995E1,3.499491513E-1,1.983783394E-1,2.356410921E-1
3.137935027E1,3.873646259E-1,2.797760665E-1,2.483165264E-1
3.139881068E1,3.795761168E-1,3.559814394E-1,2.412915826E-1
3.141827110E1,3.572795391E-1,3.445277214E-1,2.390008420E-1
3.143773152E1,3.470475674E-1,2.443459183E-1,2.379318327E-1
3.145719193E1,3.395644724E-1,8.643736690E-2,2.272416949E-1
3.147665224E1,3.290270567E-1,-8.170316368E-2,2.148716897E-1
3.149611266E1,2.835176289E-1,-2.145662606E-1,2.021962404E-1
3.151557308E1,2.085339576E-1,-2.180787325E-1,1.924224049E-1
3.153503349E1,1.260672212E-1,-9.896009415E-2,1.548542231E-1
3.155449391E1,3.825540841E-2,2.183841541E-2,8.720094711E-2
3.157395422E1,-1.244636998E-2,7.880155742E-2,3.237583488E-2
3.159341464E1,1.504254527E-2,9.896009415E-2,6.872228812E-3
3.161287506E1,1.143080741E-1,9.682206810E-2,1.618791744E-2
3.163233547E1,2.076176703E-1,6.139190868E-2,2.229656465E-2
3.165179589E1,2.540434003E-1,4.550942779E-2,9.315688163E-3
3.167125631E1,2.528216541E-1,5.482511222E-2,-2.748891478E-3
3.169071662E1,1.978438348E-1,7.788526267E-2,-9.315688163E-3
3.171017704E1,1.094211563E-1,1.020144150E-1,-1.084284950E-2
3.172963745E1,6.490438245E-3,1.214093715E-1,-4.276053514E-3
3.174909787E1,-9.980003536E-2,1.229365394E-1,1.527161920E-3
3.176855829E1,-1.798233241E-1,1.104138121E-1,6.566796452E-3
3.178801860E1,-1.961639524E-1,8.826996386E-2,-4.734201822E-3
3.180747902E1,-1.340084672E-1,5.100720748E-2,-2.550360374E-2
3.182693943E1,-3.489565104E-2,1.084284950E-2,-5.238165334E-2
3.184639985E1,5.367974192E-2,-1.481347065E-2,-7.757982612E-2
3.186586016E1,1.085048541E-1,-1.374445739E-3,-9.880737960E-2
3.188532058E1,1.285106838E-1,5.177079141E-2,-1.153007299E-1
3.190478099E1,1.353829056E-1,1.160643101E-1,-1.324049383E-1
3.192424141E1,1.440877318E-1,1.401934624E-1,-1.484401375E-1
3.194370183E1,1.605810821E-1,1.215620935E-1,-1.620318890E-1
3.196316224E1,1.880699992E-1,7.467821985E-2,-1.676823795E-1
3.198262256E1,2.318995446E-1,1.954767294E-2,-1.608101577E-1
3.200208297E1,2.951240540E-1,-2.794706449E-2,-1.437059343E-1
3.202154339E1,3.673588037E-1,-6.185005978E-2,-1.253799945E-1
3.204100381E1,4.217257798E-1,-1.044578776E-1,-1.122464016E-1
3.206046412E1,4.453967810E-1,-1.588248461E-1,-1.076649204E-1
3.207992454E1,4.350120723E-1,-2.046397030E-1,-9.544762224E-2
3.209938495E1,3.962221742E-1,-2.397644222E-1,-6.352993846E-2
3.211884537E1,3.693441153E-1,-2.730565667E-1,3.359756200E-3
3.213830579E1,3.814086914E-1,-3.029889166E-1,1.044578776E-1
3.215776610E1,4.038579762E-1,-3.297142684E-1,1.986837685E-1
3.217722652E1,4.391354322E-1,-3.527744114E-1,2.695440948E-1
3.219668693E1,4.869355857E-1,-3.594939113E-1,3.355174661E-1
3.221614735E1,4.857138693E-1,-3.226893246E-1,3.723220825E-1
3.223560777E1,4.136318266E-1,-2.672533393E-1,3.660607338E-1
3.225506808E1,2.937496006E-1,-2.234237939E-1,3.355174661E-1
3.227452849E1,1.726456583E-1,-2.075413018E-1,3.080285788E-1
3.229398891E1,6.345357746E-2,-2.157879770E-1,2.784016132E-1
3.231344933E1,-4.069886729E-2,-2.243400961E-1,2.330449075E-1
3.233290974E1,-1.512653977E-1,-2.037234008E-1,1.759290546E-1
3.235237006E1,-2.764926851E-1,-1.440113783E-1,1.469129771E-1
3.237183047E1,-4.237110913E-1,-1.123991162E-1,1.377500147E-1
3.239129089E1,-5.516872406E-1,-2.052505612E-1,7.987056673E-2
3.241075131E1,-5.912407637E-1,-4.042397738E-1,-2.351829410E-2
3.243021162E1,-5.490911007E-1,-5.158752799E-1,-1.511890292E-1
3.244967204E1,-4.617374241E-1,-4.189005196E-1,-2.220493406E-1
3.246913245E1,-4.027889669E-1,-1.960875988E-1,-2.293797284E-1
3.248859287E1,-3.763690591E-1,-2.000582218E-2,-2.342666388E-1
3.250805329E1,-3.658316433E-1,3.100138716E-2,-2.614501119E-1
3.252751360E1,-3.594175577E-1,-6.108647678E-3,-3.251327872E-1
3.254697402E1,-3.432296515E-1,-3.665188700E-2,-4.011854529E-1
3.256643443E1,-3.459785283E-1,-6.093376130E-2,-4.358520210E-1
3.258589485E1,-3.736201823E-1,-7.987056673E-2,-4.079049528E-1
3.260535526E1,-3.763690591E-1,-8.750637621E-2,-3.359756172E-1
3.262481558E1,-3.236819804E-1,-8.842267841E-2,-2.626718581E-1
3.264427599E1,-2.163224965E-1,-8.445205539E-2,-2.144135386E-1
3.266373641E1,-1.045342386E-1,-8.246674389E-2,-1.904370934E-1
3.268319683E1,-4.008800164E-2,-6.902772188E-2,-1.831067204E-1
3.270265714E1,-2.557996288E-2,-4.382954910E-2,-1.875354946E-1
3.272211756E1,-3.031416424E-2,-1.649334840E-2,-1.829539984E-1
3.274157797E1,-3.061959706E-2,1.313359290E-2,-1.577558219E-1
3.276103839E1,-2.588539571E-2,4.627300799E-2,-1.299614757E-1
3.278049881E1,-1.992946304E-2,7.971785218E-2,-1.191186309E-1
3.279995912E1,-7.712167688E-3,9.880737960E-2,-1.264490038E-1
3.281941954E1,1.229365356E-2,9.086613357E-2,-1.314886510E-1
3.283887995E1,2.160934173E-2,5.803215504E-2,-1.148425788E-1
3.285834037E1,-8.475748822E-3,1.053741761E-2,-8.445205539E-2
3.287780079E1,-5.184714869E-2,-3.054323979E-2,-5.849030241E-2
3.289726110E1,-7.933606207E-2,-5.177079141E-2,-4.062250629E-2
3.291672152E1,-9.323323518E-2,-5.482511222E-2,-1.420260593E-2
3.293618193E1,-1.071304083E-1,-4.871646687E-2,2.336557768E-2
3.295564235E1,-1.465311944E-1,-5.177079141E-2,4.978547990E-2
3.297510276E1,-1.999818534E-1,-4.184423760E-2,4.703658819E-2
3.299456308E1,-2.238055766E-1,-1.389717404E-2,3.604102135E-2
3.301402349E1,-2.141844630E-1,1.679878100E-3,3.894263133E-2
3.303348391E1,-1.943313628E-1,-1.328630932E-2,5.146535859E-2
3.305294433E1,-1.706603467E-1,-4.276053607E-2,6.261363626E-2
3.307240464E1,-1.358410567E-1,-7.452550530E-2,7.559451461E-2
3.309186506E1,-1.007163301E-1,-1.142317131E-1,8.521563560E-2
3.311132547E1,-7.246383280E-2,-1.637117565E-1,7.681624591E-2
3.313078589E1,-4.176788032E-2,-2.014326602E-1,5.726857483E-2
3.315024631E1,-4.046979360E-3,-2.101374865E-1,3.955349326E-2
3.316970662E1,4.237874225E-2,-1.831067204E-1,4.627300799E-2
3.318916704E1,9.201150388E-2,-9.132428467E-2,7.345648855E-2
3.320862745E1,1.230128929E-1,7.330377400E-2,9.514218569E-2
3.322808787E1,1.236237586E-1,2.377791107E-1,9.987638891E-2
3.324754818E1,8.498656005E-2,3.575085998E-1,1.076649204E-1
3.326700860E1,5.421424750E-3,3.958403766E-1,1.363755614E-1
3.328646902E1,-7.383827865E-2,3.281871080E-1,1.901316643E-1
3.330592943E1,-1.161406636E-1,1.420260668E-1,2.568686306E-1
3.332538985E1,-1.492800862E-1,-1.122464016E-1,3.234528899E-1
3.334485016E1,-1.469893306E-1,-3.449858725E-1,3.562868834E-1
3.336431058E1,-1.463784724E-1,-3.753764033E-1,3.465130329E-1
3.338377099E1,-2.325104028E-1,-1.834121495E-1,3.153589368E-1
3.340323141E1,-3.847684562E-1,7.070759684E-2,2.539670467E-1
3.342269183E1,-4.847975671E-1,2.822195292E-1,1.773035079E-1
3.344215214E1,-3.954585791E-1,4.037816226E-1,1.421787739E-1
3.346161256E1,-1.341611743E-1,3.900371492E-1,1.791360974E-1
3.348107297E1,1.669951528E-1,2.557996213E-1,2.390008420E-1
3.350053339E1,3.898080885E-1,8.918625861E-2,2.568686306E-1
3.351999370E1,4.747183025E-1,-5.650499370E-3,2.183841616E-1
3.353945412E1,3.969857395E-1,1.679878100E-3,1.560759544E-1
3.355891454E1,2.322049737E-1,8.704823256E-2,1.012508348E-1
3.357837495E1,9.552398324E-2,1.670715213E-1,7.589995116E-2
3.359783537E1,6.925679743E-2,1.942549944E-1,8.155044913E-2
3.361729568E1,1.605810821E-1,1.678351015E-1,1.052214578E-1
3.363675610E1,2.955822051E-1,1.032361463E-1,1.305723488E-1
3.365621652E1,3.856847584E-1,6.169734150E-2,1.543960720E-1
3.367567693E1,3.704131246E-1,5.619955808E-2,1.569922417E-1
3.369513735E1,2.752709389E-1,3.878991306E-2,1.214093715E-1
3.371459766E1,1.706603467E-1,-1.908952370E-2,8.032871783E-2
3.373405808E1,8.926261961E-2,-7.483093441E-2,5.742128938E-2
3.375351849E1,3.901898861E-2,-7.819069177E-2,6.215549260E-2
3.377297891E1,2.099847607E-2,-7.177661173E-3,9.514218569E-2
3.379243933E1,4.657844082E-3,6.627883017E-2,1.223256737E-1
3.381189974E1,-2.367100911E-3,7.956513762E-2,1.235474050E-1
3.383136006E1,2.573267929E-2,3.894263133E-2,1.033888608E-1
3.385082047E1,8.865175396E-2,-3.604102135E-2,8.017600328E-2
3.387028089E1,1.508072466E-1,-1.058323234E-1,5.635227636E-2
3.388974131E1,1.918879002E-1,-1.582139730E-1,3.222311661E-2
3.390920172E1,2.062432170E-1,-1.876882017E-1,1.313359290E-2
3.392866204E1,1.954003721E-1,-1.950185746E-1,-4.581485991E-4
3.394812245E1,1.712712198E-1,-1.820377111E-1,-4.581485875E-3
3.396758287E1,1.541669965E-1,-1.417206228E-1,0.000000000E0
3.398704329E1,1.414915472E-1,-9.117157012E-2,5.955931731E-3
3.400650370E1,1.146135032E-1,-5.681042373E-2,6.414080039E-3
3.402596402E1,7.154753804E-2,-4.841103405E-2,-1.038470119E-2
3.404542443E1,1.794415340E-2,-4.581485689E-2,-3.344484791E-2
3.406488485E1,-3.581194952E-2,-3.772090003E-2,-5.192350596E-2
3.408434526E1,-7.017309219E-2,-1.985310577E-2,-6.246092543E-2
3.410380568E1,-8.055779338E-2,-1.298087649E-2,-4.978547990E-2
3.412326610E1,-8.422297984E-2,-3.359756200E-3,-2.107483521E-2
3.414272641E1,-9.384410083E-2,6.414080039E-3,-1.725693047E-2
3.416218683E1,-1.097265854E-1,1.206457894E-2,-6.032289565E-2
3.418164724E1,-1.300378442E-1,4.092793912E-2,-1.377500147E-1
3.420110766E1,-1.405752599E-1,7.528908551E-2,-1.991419196E-1
3.422056808E1,-1.286633909E-1,5.940660089E-2,-1.795942485E-1
3.424002839E1,-1.013271958E-1,-1.343902480E-2,-7.391463965E-2
3.425948881E1,-7.108938694E-2,-6.887500733E-2,6.322450191E-2
3.427894922E1,-3.428478539E-2,-2.993237413E-2,1.421787739E-1
3.429840964E1,5.726857111E-3,7.956513762E-2,1.350011230E-1
3.431787006E1,3.061959706E-2,1.536324918E-1,9.315688163E-2
3.433733047E1,4.192059487E-2,1.556178033E-1,5.345066637E-2
3.435679079E1,2.695440874E-2,1.014035568E-1,1.649334840E-2
3.437625120E1,-6.337722298E-3,2.061668597E-2,-1.527161920E-3
3.439571162E1,-3.123046272E-2,-4.520399496E-2,1.221729536E-2
3.441517204E1,-4.207331315E-2,-6.444623321E-2,4.856374860E-2
3.443463245E1,-6.238456443E-2,-3.649916872E-2,8.811724186E-2
3.445409276E1,-1.013271958E-1,2.412915789E-2,1.039997265E-1
3.447355318E1,-1.656207144E-1,8.078686893E-2,8.918625861E-2
3.449301360E1,-2.470184416E-1,1.065959036E-1,5.314523727E-2
3.451247402E1,-3.204749227E-1,9.636391699E-2,5.650499370E-3
3.453193443E1,-3.841575980E-1,7.315105945E-2,-3.985892609E-2
3.455139485E1,-4.522690177E-1,6.108647957E-2,-6.459894776E-2
3.457085516E1,-5.144245028E-1,6.429351866E-2,-5.406153202E-2
3.459031558E1,-5.466476083E-1,6.444623321E-2,-1.572976820E-2
3.460977599E1,-5.432878733E-1,5.681042373E-2,1.634063199E-2
3.462923641E1,-5.205331445E-1,5.543597788E-2,1.664606482E-2
3.464869683E1,-5.057196617E-1,4.535670951E-2,-1.786779426E-2
3.466815714E1,-5.029708147E-1,2.474002354E-2,-7.086031139E-2
3.468761756E1,-4.878518879E-1,2.779434808E-2,-1.101083755E-1
3.470707797E1,-4.641808867E-1,8.384118974E-2,-1.302669197E-1
3.472653839E1,-4.284452796E-1,1.513417512E-1,-1.272125840E-1
3.474599881E1,-3.881282210E-1,1.695149690E-1,-1.186604798E-1
3.476545912E1,-3.687332571E-1,1.128572673E-1,-1.270598769E-1
3.478491954E1,-3.485747278E-1,3.863719851E-2,-1.408043355E-1
3.480437995E1,-3.071886301E-1,-1.007926930E-2,-1.391244531E-1
3.482384037E1,-2.312886715E-1,-2.993237413E-2,-1.189659163E-1
3.484330079E1,-1.427132785E-1,-3.558287397E-2,-8.750637621E-2
3.486276110E1,-6.268999726E-2,-4.108065739E-2,-5.054906011E-2
3.488222152E1,-3.817904799E-4,-3.329212964E-2,-3.359756246E-2
3.490168193E1,6.055197120E-2,7.941242307E-3,-3.375028074E-2
3.492114235E1,1.170569658E-1,6.582067907E-2,-4.734202102E-2
3.494060276E1,1.665370166E-1,9.560033679E-2,-6.414080411E-2
3.496006318E1,2.135736048E-1,1.055268943E-1,-6.444623321E-2
3.497952349E1,2.410625070E-1,1.012508348E-1,-4.993819445E-2
3.499898391E1,2.387717664E-1,9.544762224E-2,-3.787361458E-2
3.501844433E1,2.268599123E-1,9.666935354E-2,-3.008509055E-2
3.503790474E1,2.323576957E-1,1.046105921E-1,-3.069595434E-2
3.505736516E1,2.763399482E-1,1.215620935E-1,-3.527744114E-2
3.507682547E1,3.446041048E-1,1.386663020E-1,-3.955349326E-2
3.509628589E1,4.160752594E-1,1.288924664E-1,-5.177079141E-2
3.511574631E1,4.634172916E-1,1.021671370E-1,-7.559451461E-2
3.513520672E1,4.658607543E-1,1.064431891E-1,-1.004872546E-1
3.515466714E1,4.331794977E-1,1.322522312E-1,-1.125518382E-1
3.517412745E1,3.930151165E-1,1.505781710E-1,-1.211039424E-1
3.519358787E1,3.494910002E-1,1.463021189E-1,-1.276707351E-1
3.521304829E1,3.085630834E-1,1.287397593E-1,-1.354592592E-1
3.523250870E1,2.893208265E-1,9.926552325E-2,-1.382081509E-1
3.525196912E1,2.803105712E-1,5.604684353E-2,-1.291978955E-1
3.527142954E1,2.665661275E-1,1.756236330E-2,-1.177441850E-1
3.529088985E1,2.644280791E-1,1.511890348E-2,-9.453132749E-2
3.531035027E1,2.610683441E-1,4.764745384E-2,-6.795870513E-2
3.532981068E1,2.386190593E-1,1.085812151E-1,-4.169152305E-2
3.534927110E1,1.932623386E-1,1.748600453E-1,-3.084867075E-2
3.536873152E1,1.376736462E-1,2.060141414E-1,-4.352411628E-2
3.538819183E1,9.048434347E-2,1.974620372E-1,-6.719512492E-2
3.540765224E1,4.696023092E-2,1.563813835E-1,-9.224057943E-2
3.542711266E1,9.697478265E-3,1.069013327E-1,-9.834922850E-2
3.544657308E1,-1.931859925E-2,6.887500733E-2,-7.987056673E-2
3.546603349E1,-3.993528336E-2,5.329795182E-2,-4.734202102E-2
3.548549391E1,-5.734493211E-2,5.390881747E-2,-1.634063199E-2
3.550495422E1,-7.689260691E-2,7.024945319E-2,4.123337101E-3
3.552441464E1,-1.100320220E-1,9.498947114E-2,8.704823442E-3
3.554387506E1,-1.498909444E-1,1.149952933E-1,-9.162971983E-4
3.556333547E1,-1.685223281E-1,1.182023361E-1,-1.359174121E-2
3.558279589E1,-1.622609496E-1,1.015562713E-1,-1.007926930E-2
3.560225631E1,-1.524871141E-1,7.299833745E-2,4.123337101E-3
3.562171662E1,-1.532506943E-1,7.024945319E-2,2.260199748E-2
3.564117704E1,-1.608865112E-1,8.323032409E-2,3.756818548E-2
3.566063745E1,-1.602756530E-1,1.029307172E-1,5.085449293E-2
3.568009787E1,-1.724929363E-1,1.010981202E-1,5.482511222E-2
3.569955829E1,-1.952476501E-1,9.941824526E-2,4.734202102E-2
3.571901870E1,-2.154061943E-1,1.221729591E-1,3.878991306E-2
3.573847902E1,-2.169333547E-1,1.443168074E-1,4.230238497E-2
3.575793943E1,-2.008981556E-1,1.467602700E-1,5.604684353E-2
3.577739985E1,-1.892917305E-1,1.386663020E-1,7.055488229E-2
3.579686026E1,-1.899025887E-1,1.317940801E-1,7.941242307E-2
3.581632068E1,-1.940259188E-1,1.359174103E-1,7.757982612E-2
3.583578110E1,-1.946367919E-1,1.429423541E-1,6.979130208E-2
3.585524152E1,-1.950949430E-1,1.508836001E-1,6.368265301E-2
3.587470183E1,-1.903607398E-1,1.517999023E-1,6.887500733E-2
3.589416224E1,-1.793651730E-1,1.409570426E-1,8.002328873E-2
3.591362266E1,-1.729510874E-1,1.258381456E-1,8.506292105E-2
3.593308308E1,-1.689804643E-1,1.119409725E-1,7.498364896E-2
3.595254349E1,-1.561523080E-1,1.017089859E-1,5.482511222E-2
3.597200391E1,-1.410334110E-1,1.119409725E-1,3.100138716E-2
3.599146433E1,-1.178205460E-1,1.140789986E-1,1.206457894E-2
3.601092464E1,-8.376483619E-2,7.635809481E-2,-1.527161949E-4
3.603038506E1,-5.062541738E-2,1.908952370E-2,-2.901607659E-3
3.604984547E1,-2.466366626E-2,-1.496618707E-2,-6.566796452E-3
3.606930589E1,2.061668551E-3,-1.481347065E-2,-1.496618707E-2
3.608876631E1,3.153589368E-2,-4.428769462E-3,-2.336557768E-2
3.610822672E1,6.192641705E-2,-1.160643063E-2,-3.100138716E-2
3.612768714E1,8.193223923E-2,-3.894263133E-2,-4.138609022E-2
3.614714745E1,9.674570709E-2,-7.147117704E-2,-4.932733253E-2
3.616660787E1,1.097265854E-1,-8.368847519E-2,-5.253437161E-2
3.618606829E1,1.167515293E-1,-8.231402934E-2,-5.238165334E-2
3.620552870E1,1.178205460E-1,-7.773254067E-2,-4.963276163E-2
3.622498912E1,1.240819097E-1,-7.849612087E-2,-5.009091273E-2
3.624444954E1,1.274416596E-1,-7.147117704E-2,-5.574141070E-2
3.626390995E1,1.303432733E-1,-6.505709887E-2,-6.200277433E-2
3.628337037E1,1.327867359E-1,-6.322450191E-2,-5.543597788E-2
3.630283068E1,1.292742640E-1,-6.169734150E-2,-4.245510325E-2
3.632229110E1,1.216384470E-1,-7.757982612E-2,-3.191768378E-2
3.634175152E1,1.121700481E-1,-9.239330143E-2,-2.382372692E-2
3.636121193E1,1.030070707E-1,-9.239330143E-2,-2.000582218E-2
3.638067235E1,1.152243689E-1,-7.254019380E-2,-1.267544460E-2
3.640013276E1,1.335503161E-1,-5.879573524E-2,-1.069013379E-3
3.641959318E1,1.366046369E-1,-5.360338464E-2,1.237001177E-2
3.643905349E1,1.280525327E-1,-6.383536756E-2,2.000582218E-2
3.645851391E1,1.176678315E-1,-7.971785218E-2,2.061668597E-2
3.647797433E1,1.109483168E-1,-8.582650125E-2,1.130099874E-2
3.649743474E1,1.254563481E-1,-9.621120244E-2,-1.007926930E-2
3.651689516E1,1.604283601E-1,-1.191186309E-1,-3.161225095E-2
3.653635558E1,2.039524764E-1,-1.498145908E-1,-4.245510325E-2
3.655581599E1,2.372446060E-1,-1.608101577E-1,-4.260781780E-2
3.657527631E1,2.528216541E-1,-1.272125840E-1,-3.726275265E-2
3.659473672E1,2.575558722E-1,-6.032289565E-2,-3.298669681E-2
3.661419714E1,2.538906634E-1,-8.552107029E-3,-2.779434808E-2
3.663365756E1,2.412152290E-1,6.566796452E-3,-1.863137633E-2
3.665311797E1,2.176969349E-1,1.832594397E-3,-7.024944760E-3
3.667257839E1,1.897498667E-1,-4.886918236E-3,9.773836471E-3
3.669203881E1,1.604283601E-1,8.857538924E-3,2.626718581E-2
3.671149912E1,1.385899484E-1,3.619373962E-2,4.352411628E-2
3.673095954E1,1.182786897E-1,7.406735420E-2,5.940660089E-2
3.675041995E1,1.060613990E-1,9.712749720E-2,6.826414168E-2
3.676988037E1,1.039233729E-1,8.506292105E-2,6.902772188E-2
3.678934079E1,1.112537459E-1,4.566214234E-2,6.688969582E-2
3.680880120E1,1.146135032E-1,1.756236330E-2,6.246092543E-2
3.682826162E1,1.100320220E-1,7.483093534E-3,5.299251899E-2
3.684772193E1,9.857830405E-2,1.175914705E-2,4.276053607E-2
3.686718235E1,8.834631741E-2,2.382372692E-2,3.115410358E-2
3.688664277E1,8.391755074E-2,3.130681813E-2,2.306014486E-2
3.690610318E1,7.597630471E-2,3.008509055E-2,1.695149764E-2
3.692556360E1,5.398517475E-2,1.740964688E-2,9.468403645E-3
3.694502402E1,2.145662531E-2,7.483093534E-3,-3.512472380E-3
3.696448443E1,-9.850194678E-3,1.343902480E-2,-1.878409274E-2
3.698394474E1,-2.664897591E-2,1.863137633E-2,-3.268126398E-2
3.700340516E1,-4.314232618E-2,7.177661173E-3,-4.092793912E-2
3.702286558E1,-7.017309219E-2,1.679878100E-3,-4.444041103E-2
3.704232599E1,-1.031597927E-1,8.246674202E-3,-4.902189970E-2
3.706178641E1,-1.317177117E-1,1.175914705E-2,-6.139190868E-2
3.708124683E1,-1.483637840E-1,6.108647678E-3,-7.360920310E-2
3.710070724E1,-1.489746422E-1,-7.941242307E-3,-8.139773458E-2
3.712016766E1,-1.611919403E-1,-1.985310577E-2,-8.384118974E-2
3.713962797E1,-1.876118481E-1,-2.382372692E-2,-8.552107215E-2
3.715908839E1,-2.129627317E-1,-2.626718581E-2,-7.895427197E-2
3.717854881E1,-2.293033600E-1,-2.932151034E-2,-6.795870513E-2
3.719800922E1,-2.425896823E-1,-1.496618707E-2,-6.169734150E-2
3.721746964E1,-2.661079764E-1,2.168569900E-2,-5.238165334E-2
3.723693006E1,-2.928332984E-1,5.619955808E-2,-4.199695215E-2
3.725639047E1,-3.041343093E-1,6.536252797E-2,-4.321868345E-2
3.727585079E1,-2.945131958E-1,5.864302069E-2,-5.482511222E-2
3.729531120E1,-2.757290900E-1,4.459312931E-2,-6.826414168E-2
3.731477162E1,-2.554178238E-1,2.428187430E-2,-7.880155742E-2
3.733423204E1,-2.416733801E-1,7.330377586E-3,-8.475748450E-2
3.735369245E1,-2.366337478E-1,1.099556591E-2,-8.659008145E-2
3.737315287E1,-2.306778133E-1,2.183841541E-2,-8.521563560E-2
3.739261329E1,-2.254854590E-1,2.504545636E-2,-8.002328873E-2
3.741207360E1,-2.233474404E-1,2.122755162E-2,-7.147117704E-2
3.743153402E1,-2.253327519E-1,1.527161949E-4,-5.558869615E-2
3.745099443E1,-2.256381810E-1,-3.207040206E-2,-3.665188700E-2
3.747045485E1,-2.241110206E-1,-5.406153202E-2,-2.138026804E-2
3.748991526E1,-2.163224965E-1,-5.070177838E-2,-9.315688163E-3
3.750937568E1,-2.071595192E-1,-3.772090003E-2,5.955931731E-3
3.752883610E1,-1.958585232E-1,-4.169152305E-2,2.428187430E-2
3.754829652E1,-1.758527011E-1,-6.704241037E-2,5.009091273E-2
3.756775683E1,-1.521816850E-1,-8.521563560E-2,7.712167501E-2
3.758721724E1,-1.242346242E-1,-7.895427197E-2,9.407317638E-2
3.760667766E1,-9.598212689E-2,-6.612611562E-2,1.091920808E-1
3.762613808E1,-7.506000996E-2,-6.459894776E-2,1.354592592E-1
3.764559849E1,-5.566505343E-2,-8.414662629E-2,1.623373181E-1
3.766505891E1,-3.459021822E-2,-1.064431891E-1,1.711948514E-1
3.768451933E1,-1.137735695E-2,-1.101083755E-1,1.621845961E-1
3.770397964E1,8.399390499E-4,-1.004872546E-1,1.450803876E-1
3.772344006E1,-2.290742996E-4,-9.208786488E-2,1.317940801E-1
3.774290047E1,-1.519526169E-2,-9.529490769E-2,1.235474050E-1
3.776236089E1,-3.229947388E-2,-1.123991162E-1,1.151480079E-1
3.778182131E1,-4.497491941E-2,-1.308777779E-1,1.003345400E-1
3.780128172E1,-4.711294547E-2,-1.388190240E-1,8.155044913E-2
3.782074214E1,-4.237874225E-2,-1.308777779E-1,6.551524997E-2
3.784020256E1,-3.642281145E-2,-1.128572673E-1,6.154462695E-2
3.785966287E1,-2.802342176E-2,-1.000291109E-1,6.475166976E-2
3.787912329E1,-1.748600416E-2,-9.117157012E-2,6.307178736E-2
3.789858370E1,-1.030834299E-2,-7.528908551E-2,5.238165334E-2
3.791804412E1,-9.850194678E-3,-4.627300799E-2,2.672533318E-2
3.793750454E1,-3.283398226E-3,-2.748891525E-2,1.084284950E-2
3.795696495E1,6.948587019E-3,-1.756236330E-2,4.581485875E-3
3.797642537E1,2.985601686E-2,-1.282816008E-2,-5.039634649E-3
3.799588579E1,7.658717036E-2,-1.832594350E-2,-8.246674202E-3
3.801534610E1,1.340084672E-1,-3.436114267E-2,-5.192350596E-3
3.803480652E1,1.795178801E-1,-5.742128938E-2,3.054323897E-4
3.805426693E1,2.157116234E-1,-7.070759684E-2,-8.857538924E-3
3.807372735E1,2.360228747E-1,-8.368847519E-2,-3.359756246E-2
3.809318776E1,2.506836355E-1,-8.796452731E-2,-4.612028971E-2
3.811264818E1,2.679405510E-1,-9.834922850E-2,-3.970621154E-2
3.813210860E1,2.748127878E-1,-1.010981202E-1,-2.214384824E-2
3.815156891E1,2.699258626E-1,-8.017600328E-2,-9.010255337E-3
3.817102933E1,2.595411837E-1,-4.749473557E-2,-1.160643063E-2
3.819048974E1,2.473238707E-1,-3.176496923E-2,-1.832594350E-2
3.820995016E1,2.306778133E-1,-4.382954910E-2,-2.535088919E-2
3.822941058E1,2.128100246E-1,-4.825831577E-2,-3.481929377E-2
3.824887099E1,2.036470473E-1,-3.588830680E-2,-5.100720748E-2
3.826833141E1,1.943313628E-1,-2.107483521E-2,-4.092793912E-2
3.828779172E1,1.876118481E-1,3.069595434E-2,-4.230238497E-2
3.830725214E1,1.839466542E-1,6.597339362E-2,-4.550942779E-2
3.832671256E1,1.689804643E-1,5.986474827E-2,-5.696314201E-2
3.834617297E1,1.567631811E-1,4.291325063E-2,-7.941242307E-2
3.836563339E1,1.712712198E-1,6.230820715E-2,-9.544762224E-2
3.838509381E1,1.975383908E-1,9.346231073E-2,-9.697478265E-2
3.840455422E1,2.222784162E-1,1.084285006E-1,-8.445205539E-2
3.842401454E1,2.373973280E-1,9.804379940E-2,-6.963858753E-2
3.844347495E1,2.552651167E-1,7.269290835E-2,-6.979130208E-2
3.846293537E1,2.826013267E-1,4.520399496E-2,-7.024945319E-2
3.848239579E1,3.180314898E-1,3.039052337E-2,-6.887500733E-2
3.850185620E1,3.392590284E-1,4.413498193E-2,-6.902772188E-2
3.852131662E1,3.362047076E-1,4.963276163E-2,-7.498364896E-2
3.854077693E1,3.062723279E-1,3.802633286E-2,-6.566796452E-2
3.856023735E1,2.601520419E-1,3.329212964E-2,-6.017018110E-2
3.857969777E1,2.073122412E-1,3.375028074E-2,-6.185005978E-2
3.859915818E1,1.599702090E-1,5.345066637E-2,-6.551524997E-2
3.861861860E1,1.278998107E-1,7.254019380E-2,-5.833758786E-2
3.863807902E1,1.127809063E-1,7.192932814E-2,-4.230238497E-2
3.865753943E1,1.282052398E-1,5.711585656E-2,-2.504545636E-2
3.867699974E1,1.619555205E-1,3.405570984E-2,-1.649334840E-2
3.869646016E1,1.779907197E-1,1.053741761E-2,-1.985310577E-2
3.871592058E1,1.590539217E-1,-1.527161920E-3,-2.947422490E-2
3.873538099E1,1.111010313E-1,1.618791744E-2,-3.359756246E-2
3.875484141E1,5.810851231E-2,5.742128938E-2,-2.748891525E-2
3.877430183E1,1.336266659E-2,1.004872546E-1,-8.704823442E-3
3.879376224E1,-2.878700197E-2,1.174387559E-1,2.397644334E-2
3.881322256E1,-6.681333482E-2,1.137735620E-1,4.596757516E-2
3.883268297E1,-8.071050793E-2,9.208786488E-2,4.550942779E-2
3.885214339E1,-7.139482349E-2,4.413498193E-2,3.970621154E-2
3.887160381E1,-6.620246917E-2,1.175914705E-2,3.848448023E-2
3.889106422E1,-7.154753804E-2,1.679878123E-2,3.863719851E-2
